ax,ay,az,gx,gy,gz,pressure,temperature,altitude,climbRate,latitudeE7,longitudeE7,gpsAltitude,speed,heading,sats,fix,roll,filterRoll,pitch,yaw,servoDegree,baroTimeMs,gpsTimeMs,aTimeMs,aRxTimeMs,state,timeMs
0.0,0.0,0.0,0.0,0.0,0.0,1016.9288330078125,23.030000686645508,-0.0317072868347168,0.0,0,0,0.0,0.0,0.0,0,False,0.0,0.0,0.0,0.0,0.0,3369,0,0,0,0,3369
0.0,0.0,0.0,0.0,0.0,0.0,1016.9337768554688,23.030000686645508,-0.07398366928100586,-0.16910552978515625,0,0,0.0,0.0,0.0,0,False,0.0,0.0,0.0,0.0,0.0,3419,0,0,0,0,3419
0.0,0.0,0.0,0.0,0.0,0.0,1016.9337768554688,23.030000686645508,-0.07398366928100586,-0.135284423828125,0,0,0.0,0.0,0.0,0,False,0.0,0.0,0.0,0.0,0.0,3469,0,0,0,0,3469
0.0,0.0,0.0,0.0,0.0,0.0,1016.7801513671875,22.93000030517578,1.2048768997192383,5.007214546203613,0,0,0.0,0.0,0.0,0,False,0.0,0.0,0.0,0.0,0.0,3519,0,0,0,0,3519
0.0,0.0,0.0,0.0,0.0,0.0,1016.7801513671875,22.93000030517578,1.2048768997192383,4.005771636962891,0,0,0.0,0.0,0.0,0,False,0.0,0.0,0.0,0.0,0.0,3569,0,0,0,0,3569
0.0,0.0,0.0,0.0,0.0,0.0,1016.6359252929688,22.829999923706055,2.3991847038269043,7.98184871673584,0,0,0.0,0.0,0.0,0,False,0.0,0.0,0.0,0.0,0.0,3619,0,0,0,0,3619
0.0,0.0,0.0,0.0,0.0,0.0,1016.6359252929688,22.829999923706055,2.3991847038269043,6.385478973388672,0,0,0.0,0.0,0.0,0,False,0.0,0.0,0.0,0.0,0.0,3670,0,0,0,0,3670
0.0,0.0,0.0,0.0,0.0,0.0,1016.5009155273438,22.75,3.5195088386535645,9.589679718017578,0,0,0.0,0.0,0.0,0,False,0.0,0.0,0.0,0.0,0.0,3720,0,0,0,0,3720
0.0,0.0,0.0,0.0,0.0,0.0,1016.5009155273438,22.75,3.5195088386535645,7.671743869781494,0,0,0.0,0.0,0.0,0,False,0.0,0.0,0.0,0.0,0.0,3779,0,0,0,0,3779
0.0,0.0,0.0,0.0,0.0,0.0,1016.5267333984375,22.760000228881836,3.3054847717285156,5.281299114227295,0,0,0.0,0.0,0.0,0,False,0.0,0.0,0.0,0.0,0.0,3829,0,0,0,0,3829
0.0,0.0,0.0,0.0,0.0,0.0,1016.5267333984375,22.760000228881836,3.3054847717285156,4.225039482116699,0,0,0.0,0.0,0.0,0,False,0.0,0.0,0.0,0.0,0.0,3879,0,0,0,0,3879
0.0,0.0,0.0,0.0,0.0,0.0,1016.4009399414062,22.68000030517578,4.349183082580566,7.5548248291015625,0,0,0.0,0.0,0.0,0,False,0.0,0.0,0.0,0.0,0.0,3929,0,0,0,0,3929
0.0,0.0,0.0,0.0,0.0,0.0,1016.4009399414062,22.68000030517578,4.349183082580566,6.043859958648682,0,0,0.0,0.0,0.0,0,False,0.0,0.0,0.0,0.0,0.0,3979,0,0,0,0,3979
0.0,0.0,0.0,0.0,0.0,0.0,1016.2818603515625,22.600000381469727,5.337393283843994,8.78792953491211,0,0,0.0,0.0,0.0,0,False,0.0,0.0,0.0,0.0,0.0,4029,0,0,0,0,4029
0.0,0.0,0.0,0.0,0.0,0.0,1016.2818603515625,22.600000381469727,5.337393283843994,7.030343532562256,0,0,0.0,0.0,0.0,0,False,0.0,0.0,0.0,0.0,0.0,4079,0,0,0,0,4079
0.0,0.0,0.0,0.0,0.0,0.0,1016.1683349609375,22.530000686645508,6.280684947967529,9.397441864013672,0,0,0.0,0.0,0.0,0,False,0.0,0.0,0.0,0.0,0.0,4129,0,0,0,0,4129
0.0,0.0,0.0,0.0,0.0,0.0,1016.1683349609375,22.530000686645508,6.280684947967529,7.517953395843506,0,0,0.0,0.0,0.0,0,False,0.0,0.0,0.0,0.0,0.0,4179,0,0,0,0,4179
0.0,0.0,0.0,0.0,0.0,0.0,1016.218994140625,22.559999465942383,5.860563278198242,4.333876132965088,0,0,0.0,0.0,0.0,0,False,0.0,0.0,0.0,0.0,0.0,4229,0,0,0,0,4229
0.0,0.0,0.0,0.0,0.0,0.0,1016.218994140625,22.559999465942383,5.860563278198242,3.4671008586883545,0,0,0.0,0.0,0.0,0,False,0.0,0.0,0.0,0.0,0.0,4279,0,0,0,0,4279
0.0,0.0,0.0,0.0,0.0,0.0,1016.1097412109375,22.489999771118164,6.7668633460998535,6.398880958557129,0,0,0.0,0.0,0.0,0,False,0.0,0.0,0.0,0.0,0.0,4329,0,0,0,0,4329
0.0,0.0,0.0,0.0,0.0,0.0,1016.0125122070312,22.420000076293945,7.575399398803711,7.859905242919922,0,0,0.0,0.0,0.0,0,False,0.0,0.0,0.0,0.0,0.0,4388,0,0,0,0,4388
0.0,0.0,0.0,0.0,0.0,0.0,1016.0125122070312,22.420000076293945,7.575399398803711,6.287924289703369,0,0,0.0,0.0,0.0,0,False,0.0,0.0,0.0,0.0,0.0,4438,0,0,0,0,4438
0.0,0.0,0.0,0.0,0.0,0.0,1015.91748046875,22.360000610351562,8.362796783447266,8.179929733276367,0,0,0.0,0.0,0.0,0,False,0.0,0.0,0.0,0.0,0.0,4488,0,0,0,0,4488
0.0,0.0,0.0,0.0,0.0,0.0,1015.91748046875,22.360000610351562,8.362796783447266,6.543943881988525,0,0,0.0,0.0,0.0,0,False,0.0,0.0,0.0,0.0,0.0,4538,0,0,0,0,4538
0.0,0.0,0.0,0.0,0.0,0.0,1015.9801025390625,22.399999618530273,7.842268943786621,3.153043746948242,0,0,0.0,0.0,0.0,0,False,0.0,0.0,0.0,0.0,0.0,4588,0,0,0,0,4588
0.0,0.0,0.0,0.0,0.0,0.0,1015.9801025390625,22.399999618530273,7.842268943786621,2.522434949874878,0,0,0.0,0.0,0.0,0,False,0.0,0.0,0.0,0.0,0.0,4638,0,0,0,0,4638
0.0,0.0,0.0,0.0,0.0,0.0,1015.885498046875,22.34000015258789,8.62702465057373,5.156970977783203,0,0,0.0,0.0,0.0,0,False,0.0,0.0,0.0,0.0,0.0,4688,0,0,0,0,4688
0.0,0.0,0.0,0.0,0.0,0.0,1015.885498046875,22.34000015258789,8.62702465057373,4.125576972961426,0,0,0.0,0.0,0.0,0,False,0.0,0.0,0.0,0.0,0.0,4738,0,0,0,0,4738
0.0,0.0,0.0,0.0,0.0,0.0,1015.800048828125,22.290000915527344,9.337796211242676,6.143548011779785,0,0,0.0,0.0,0.0,0,False,0.0,0.0,0.0,0.0,0.0,4788,0,0,0,0,4788
0.0,0.0,0.0,0.0,0.0,0.0,1015.800048828125,22.290000915527344,9.337796211242676,4.9148383140563965,0,0,0.0,0.0,0.0,0,False,0.0,0.0,0.0,0.0,0.0,4838,0,0,0,0,4838
0.0,0.0,0.0,0.0,0.0,0.0,1015.7173461914062,22.229999542236328,10.024786949157715,6.67983341217041,0,0,0.0,0.0,0.0,0,False,0.0,0.0,0.0,0.0,0.0,4888,0,0,0,0,4888
0.0,0.0,0.0,0.0,0.0,0.0,1015.7173461914062,22.229999542236328,10.024786949157715,5.34386682510376,0,0,0.0,0.0,0.0,0,False,0.0,0.0,0.0,0.0,0.0,4938,0,0,0,0,4938
0.0,0.0,0.0,0.0,0.0,0.0,1015.7957763671875,22.280000686645508,9.374788284301758,1.6750988960266113,0,0,0.0,0.0,0.0,0,False,0.0,0.0,0.0,0.0,0.0,4988,0,0,0,0,4988
0.0,0.0,0.0,0.0,0.0,0.0,1015.7957763671875,22.280000686645508,9.374788284301758,1.3400791883468628,0,0,0.0,0.0,0.0,0,False,0.0,0.0,0.0,0.0,0.0,5038,0,0,0,0,5038
0.0,0.0,0.0,0.0,0.0,0.0,1015.7146606445312,22.229999542236328,10.04592514038086,3.756610870361328,0,0,0.0,0.0,0.0,0,False,0.0,0.0,0.0,0.0,0.0,5088,0,0,0,0,5088
0.0,0.0,0.0,0.0,0.0,0.0,1015.7146606445312,22.229999542236328,10.04592514038086,3.00528883934021,0,0,0.0,0.0,0.0,0,False,0.0,0.0,0.0,0.0,0.0,5138,0,0,0,0,5138
0.0,0.0,0.0,0.0,0.0,0.0,1015.6400146484375,22.18000030517578,10.66685962677002,4.887969017028809,0,0,0.0,0.0,0.0,0,False,0.0,0.0,0.0,0.0,0.0,5188,0,0,0,0,5188
0.0,0.0,0.0,0.0,0.0,0.0,1015.6400146484375,22.18000030517578,10.66685962677002,3.9103753566741943,0,0,0.0,0.0,0.0,0,False,0.0,0.0,0.0,0.0,0.0,5238,0,0,0,0,5238
0.0,0.0,0.0,0.0,0.0,0.0,1015.5675048828125,22.1299991607666,11.269298553466797,5.538056373596191,0,0,0.0,0.0,0.0,0,False,0.0,0.0,0.0,0.0,0.0,5288,0,0,0,0,5288
0.0,0.0,0.0,0.0,0.0,0.0,1015.5675048828125,22.1299991607666,11.269298553466797,4.430445194244385,0,0,0.0,0.0,0.0,0,False,0.0,0.0,0.0,0.0,0.0,5338,0,0,0,0,5338
0.0,0.0,0.0,0.0,0.0,0.0,1015.6561889648438,22.190000534057617,10.532103538513184,0.6533951759338379,0,0,0.0,0.0,0.0,0,False,0.0,0.0,0.0,0.0,0.0,5389,0,0,0,0,5389
0.0,0.0,0.0,0.0,0.0,0.0,1015.6561889648438,22.190000534057617,10.532103538513184,0.5227161645889282,0,0,0.0,0.0,0.0,0,False,0.0,0.0,0.0,0.0,0.0,5439,0,0,0,0,5439
0.0,0.0,0.0,0.0,0.0,0.0,1015.7196044921875,22.229999542236328,10.006291389465332,-1.6850756406784058,0,0,0.0,0.0,0.0,0,False,0.0,0.0,0.0,0.0,0.0,5489,0,0,0,0,5489
0.0,0.0,0.0,0.0,0.0,0.0,1015.7196044921875,22.229999542236328,10.006291389465332,-1.3480604887008667,0,0,0.0,0.0,0.0,0,False,0.0,0.0,0.0,0.0,0.0,5539,0,0,0,0,5539
0.0,0.0,0.0,0.0,0.0,0.0,1015.646484375,22.18000030517578,10.614014625549316,1.304780125617981,0,0,0.0,0.0,0.0,0,False,0.0,0.0,0.0,0.0,0.0,5590,0,0,0,0,5590
0.0,0.0,0.0,0.0,0.0,0.0,1015.646484375,22.18000030517578,10.614014625549316,1.0438240766525269,0,0,0.0,0.0,0.0,0,False,0.0,0.0,0.0,0.0,0.0,5640,0,0,0,0,5640
0.0,0.0,0.0,0.0,0.0,0.0,1015.57568359375,22.1299991607666,11.20059871673584,3.1813955307006836,0,0,0.0,0.0,0.0,0,False,0.0,0.0,0.0,0.0,0.0,5690,0,0,0,0,5690
0.0,0.0,0.0,0.0,0.0,0.0,1015.57568359375,22.1299991607666,11.20059871673584,2.545116424560547,0,0,0.0,0.0,0.0,0,False,0.0,0.0,0.0,0.0,0.0,5740,0,0,0,0,5740
0.0,0.0,0.0,0.0,0.0,0.0,1015.6587524414062,22.190000534057617,10.510965347290039,-0.722440242767334,0,0,0.0,0.0,0.0,0,False,0.0,0.0,0.0,0.0,0.0,5790,0,0,0,0,5790
0.0,0.0,0.0,0.0,0.0,0.0,1015.6587524414062,22.190000534057617,10.510965347290039,-0.5779522061347961,0,0,0.0,0.0,0.0,0,False,0.0,0.0,0.0,0.0,0.0,5840,0,0,0,0,5840
0.0,0.0,0.0,0.0,0.0,0.0,1015.7420043945312,22.239999771118164,9.821331977844238,-3.220895290374756,0,0,0.0,0.0,0.0,0,False,0.0,0.0,0.0,0.0,0.0,5890,0,0,0,0,5890
0.0,0.0,0.0,0.0,0.0,0.0,1015.7420043945312,22.239999771118164,9.821331977844238,-2.576716184616089,0,0,0.0,0.0,0.0,0,False,0.0,0.0,0.0,0.0,0.0,5940,0,0,0,0,5940
0.0,0.0,0.0,0.0,0.0,0.0,1015.6676635742188,22.190000534057617,10.436982154846191,0.4012277126312256,0,0,0.0,0.0,0.0,0,False,0.0,0.0,0.0,0.0,0.0,5990,0,0,0,0,5990
0.0,0.0,0.0,0.0,0.0,0.0,1015.6676635742188,22.190000534057617,10.436982154846191,0.3209821879863739,0,0,0.0,0.0,0.0,0,False,0.0,0.0,0.0,0.0,0.0,6040,0,0,0,0,6040
0.0,0.0,0.0,0.0,0.0,0.0,1015.6007690429688,22.149999618530273,10.991859436035156,2.476294994354248,0,0,0.0,0.0,0.0,0,False,0.0,0.0,0.0,0.0,0.0,6090,0,0,0,0,6090
0.0,0.0,0.0,0.0,0.0,0.0,1015.6007690429688,22.149999618530273,10.991859436035156,1.9810360670089722,0,0,0.0,0.0,0.0,0,False,0.0,0.0,0.0,0.0,0.0,6140,0,0,0,0,6140
0.0,0.0,0.0,0.0,0.0,0.0,1015.6890869140625,22.200000762939453,10.259949684143066,-1.3428101539611816,0,0,0.0,0.0,0.0,0,False,0.0,0.0,0.0,0.0,0.0,6190,0,0,0,0,6190
0.0,0.0,0.0,0.0,0.0,0.0,1015.6890869140625,22.200000762939453,10.259949684143066,-1.074248194694519,0,0,0.0,0.0,0.0,0,False,0.0,0.0,0.0,0.0,0.0,6240,0,0,0,0,6240
0.0,0.0,0.0,0.0,0.0,0.0,1015.7658081054688,22.25,9.623161315917969,-3.4065520763397217,0,0,0.0,0.0,0.0,0,False,0.0,0.0,0.0,0.0,0.0,6290,0,0,0,0,6290
0.0,0.0,0.0,0.0,0.0,0.0,1015.7658081054688,22.25,9.623161315917969,-2.7252416610717773,0,0,0.0,0.0,0.0,0,False,0.0,0.0,0.0,0.0,0.0,6340,0,0,0,0,6340
0.0,0.0,0.0,0.0,0.0,0.0,1015.7045288085938,22.209999084472656,10.130477905273438,-0.15092706680297852,0,0,0.0,0.0,0.0,0,False,0.0,0.0,0.0,0.0,0.0,6390,0,0,0,0,6390
0.0,0.0,0.0,0.0,0.0,0.0,1015.7045288085938,22.209999084472656,10.130477905273438,-0.12074165791273117,0,0,0.0,0.0,0.0,0,False,0.0,0.0,0.0,0.0,0.0,6440,0,0,0,0,6440
0.0,0.0,0.0,0.0,0.0,0.0,1015.645751953125,22.170000076293945,10.619298934936523,1.8586907386779785,0,0,0.0,0.0,0.0,0,False,0.0,0.0,0.0,0.0,0.0,6490,0,0,0,0,6490
0.0,0.0,0.0,0.0,0.0,0.0,1015.645751953125,22.170000076293945,10.619298934936523,1.4869526624679565,0,0,0.0,0.0,0.0,0,False,0.0,0.0,0.0,0.0,0.0,6540,0,0,0,0,6540
0.0,0.0,0.0,0.0,0.0,0.0,1015.728759765625,22.229999542236328,9.929665565490723,-1.5689712762832642,0,0,0.0,0.0,0.0,0,False,0.0,0.0,0.0,0.0,0.0,6590,0,0,0,0,6590
0.0,0.0,0.0,0.0,0.0,0.0,1015.728759765625,22.229999542236328,9.929665565490723,-1.2551770210266113,0,0,0.0,0.0,0.0,0,False,0.0,0.0,0.0,0.0,0.0,6640,0,0,0,0,6640
0.0,0.0,0.0,0.0,0.0,0.0,1015.8067016601562,22.280000686645508,9.282308578491211,-3.593569755554199,0,0,0.0,0.0,0.0,0,False,0.0,0.0,0.0,0.0,0.0,6690,0,0,0,0,6690
0.0,0.0,0.0,0.0,0.0,0.0,1015.8067016601562,22.280000686645508,9.282308578491211,-2.8748557567596436,0,0,0.0,0.0,0.0,0,False,0.0,0.0,0.0,0.0,0.0,6740,0,0,0,0,6740
0.0,0.0,0.0,0.0,0.0,0.0,1015.7402954101562,22.229999542236328,9.834543228149414,-0.09094595909118652,0,0,0.0,0.0,0.0,0,False,0.0,0.0,0.0,0.0,0.0,6790,0,0,0,0,6790
0.0,0.0,0.0,0.0,0.0,0.0,1015.7402954101562,22.229999542236328,9.834543228149414,-0.07275676727294922,0,0,0.0,0.0,0.0,0,False,0.0,0.0,0.0,0.0,0.0,6840,0,0,0,0,6840
0.0,0.0,0.0,0.0,0.0,0.0,1015.6810913085938,22.190000534057617,10.326005935668945,1.9076454639434814,0,0,0.0,0.0,0.0,0,False,0.0,0.0,0.0,0.0,0.0,6890,0,0,0,0,6890
0.0,0.0,0.0,0.0,0.0,0.0,1015.6810913085938,22.190000534057617,10.326005935668945,1.5261163711547852,0,0,0.0,0.0,0.0,0,False,0.0,0.0,0.0,0.0,0.0,6940,0,0,0,0,6940
0.0,0.0,0.0,0.0,0.0,0.0,1015.7601318359375,22.239999771118164,9.670722961425781,-1.4002387523651123,0,0,0.0,0.0,0.0,0,False,0.0,0.0,0.0,0.0,0.0,6990,0,0,0,0,6990
0.0,0.0,0.0,0.0,0.0,0.0,1015.7601318359375,22.239999771118164,9.670722961425781,-1.120190978050232,0,0,0.0,0.0,0.0,0,False,0.0,0.0,0.0,0.0,0.0,7040,0,0,0,0,7040
0.0,0.0,0.0,0.0,0.0,0.0,1015.834228515625,22.290000915527344,9.055072784423828,-3.3587534427642822,0,0,0.0,0.0,0.0,0,False,0.0,0.0,0.0,0.0,0.0,7090,0,0,0,0,7090
0.0,0.0,0.0,0.0,0.0,0.0,1015.834228515625,22.290000915527344,9.055072784423828,-2.6870028972625732,0,0,0.0,0.0,0.0,0,False,0.0,0.0,0.0,0.0,0.0,7140,0,0,0,0,7140
0.0,0.0,0.0,0.0,0.0,0.0,1015.767333984375,22.25,9.609950065612793,0.06990671157836914,0,0,0.0,0.0,0.0,0,False,0.0,0.0,0.0,0.0,0.0,7190,0,0,0,0,7190
0.0,0.0,0.0,0.0,0.0,0.0,1015.767333984375,22.25,9.609950065612793,0.05592536926269531,0,0,0.0,0.0,0.0,0,False,0.0,0.0,0.0,0.0,0.0,7240,0,0,0,0,7240
0.0,0.0,0.0,0.0,0.0,0.0,1015.7045288085938,22.209999084472656,10.130477905273438,2.1268515586853027,0,0,0.0,0.0,0.0,0,False,0.0,0.0,0.0,0.0,0.0,7290,0,0,0,0,7290
0.0,0.0,0.0,0.0,0.0,0.0,1015.7045288085938,22.209999084472656,10.130477905273438,1.7014812231063843,0,0,0.0,0.0,0.0,0,False,0.0,0.0,0.0,0.0,0.0,7340,0,0,0,0,7340
0.0,0.0,0.0,0.0,0.0,0.0,1015.781982421875,22.260000228881836,9.488405227661133,-0.8528589010238647,0,0,0.0,0.0,0.0,0,False,0.0,0.0,0.0,0.0,0.0,7398,0,0,0,0,7398
0.0,0.0,0.0,0.0,0.0,0.0,1015.781982421875,22.260000228881836,9.488405227661133,-0.6822871565818787,0,0,0.0,0.0,0.0,0,False,0.0,0.0,0.0,0.0,0.0,7448,0,0,0,0,7448
0.0,0.0,0.0,0.0,0.0,0.0,1015.8560180664062,22.299999237060547,8.872756004333496,-3.0084266662597656,0,0,0.0,0.0,0.0,0,False,0.0,0.0,0.0,0.0,0.0,7498,0,0,0,0,7498
0.0,0.0,0.0,0.0,0.0,0.0,1015.8560180664062,22.299999237060547,8.872756004333496,-2.4067413806915283,0,0,0.0,0.0,0.0,0,False,0.0,0.0,0.0,0.0,0.0,7548,0,0,0,0,7548
0.0,0.0,0.0,0.0,0.0,0.0,1015.77294921875,22.25,9.562389373779297,0.8331403732299805,0,0,0.0,0.0,0.0,0,False,0.0,0.0,0.0,0.0,0.0,7598,0,0,0,0,7598
0.0,0.0,0.0,0.0,0.0,0.0,1015.77294921875,22.25,9.562389373779297,0.6665123105049133,0,0,0.0,0.0,0.0,0,False,0.0,0.0,0.0,0.0,0.0,7648,0,0,0,0,7648
0.0,0.0,0.0,0.0,0.0,0.0,1015.6942138671875,22.200000762939453,10.217673301696777,3.1543455123901367,0,0,0.0,0.0,0.0,0,False,0.0,0.0,0.0,0.0,0.0,7698,0,0,0,0,7698
0.0,0.0,0.0,0.0,0.0,0.0,1015.6942138671875,22.200000762939453,10.217673301696777,2.5234763622283936,0,0,0.0,0.0,0.0,0,False,0.0,0.0,0.0,0.0,0.0,7748,0,0,0,0,7748
0.0,0.0,0.0,0.0,0.0,0.0,1015.7713012695312,22.25,9.578243255615234,-0.5389389991760254,0,0,0.0,0.0,0.0,0,False,0.0,0.0,0.0,0.0,0.0,7798,0,0,0,0,7798
0.0,0.0,0.0,0.0,0.0,0.0,1015.7713012695312,22.25,9.578243255615234,-0.43115121126174927,0,0,0.0,0.0,0.0,0,False,0.0,0.0,0.0,0.0,0.0,7848,0,0,0,0,7848
0.0,0.0,0.0,0.0,0.0,0.0,1015.84375,22.299999237060547,8.975804328918457,-2.754676580429077,0,0,0.0,0.0,0.0,0,False,0.0,0.0,0.0,0.0,0.0,7898,0,0,0,0,7898
0.0,0.0,0.0,0.0,0.0,0.0,1015.84375,22.299999237060547,8.975804328918457,-2.2037413120269775,0,0,0.0,0.0,0.0,0,False,0.0,0.0,0.0,0.0,0.0,7948,0,0,0,0,7948
0.0,0.0,0.0,0.0,0.0,0.0,1015.7611083984375,22.239999771118164,9.662796020507812,0.984973669052124,0,0,0.0,0.0,0.0,0,False,0.0,0.0,0.0,0.0,0.0,7998,0,0,0,0,7998
0.0,0.0,0.0,0.0,0.0,0.0,1015.7611083984375,22.239999771118164,9.662796020507812,0.7879789471626282,0,0,0.0,0.0,0.0,0,False,0.0,0.0,0.0,0.0,0.0,8048,0,0,0,0,8048
0.0,0.0,0.0,0.0,0.0,0.0,1015.682373046875,22.190000534057617,10.315437316894531,3.240948438644409,0,0,0.0,0.0,0.0,0,False,0.0,0.0,0.0,0.0,0.0,8098,0,0,0,0,8098
0.0,0.0,0.0,0.0,0.0,0.0,1015.682373046875,22.190000534057617,10.315437316894531,2.592758893966675,0,0,0.0,0.0,0.0,0,False,0.0,0.0,0.0,0.0,0.0,8148,0,0,0,0,8148
0.0,0.0,0.0,0.0,0.0,0.0,1015.7611083984375,22.239999771118164,9.662796020507812,-0.536358118057251,0,0,0.0,0.0,0.0,0,False,0.0,0.0,0.0,0.0,0.0,8198,0,0,0,0,8198
0.0,0.0,0.0,0.0,0.0,0.0,1015.7611083984375,22.239999771118164,9.662796020507812,-0.42908650636672974,0,0,0.0,0.0,0.0,0,False,0.0,0.0,0.0,0.0,0.0,8248,0,0,0,0,8248
0.0,0.0,0.0,0.0,0.0,0.0,1015.8375244140625,22.290000915527344,9.026007652282715,-2.8904225826263428,0,0,0.0,0.0,0.0,0,False,0.0,0.0,0.0,0.0,0.0,8298,0,0,0,0,8298
0.0,0.0,0.0,0.0,0.0,0.0,1015.8375244140625,22.290000915527344,9.026007652282715,-2.31233811378479,0,0,0.0,0.0,0.0,0,False,0.0,0.0,0.0,0.0,0.0,8348,0,0,0,0,8348
0.0,0.0,0.0,0.0,0.0,0.0,1015.7528076171875,22.239999771118164,9.731494903564453,0.9720784425735474,0,0,0.0,0.0,0.0,0,False,0.0,0.0,0.0,0.0,0.0,8398,0,0,0,0,8398
0.0,0.0,0.0,0.0,0.0,0.0,1015.7528076171875,22.239999771118164,9.731494903564453,0.7776627540588379,0,0,0.0,0.0,0.0,0,False,0.0,0.0,0.0,0.0,0.0,8448,0,0,0,0,8448
0.0,0.0,0.0,0.0,0.0,0.0,1015.674072265625,22.190000534057617,10.384136199951172,3.2326953411102295,0,0,0.0,0.0,0.0,0,False,0.0,0.0,0.0,0.0,0.0,8498,0,0,0,0,8498
0.0,0.0,0.0,0.0,0.0,0.0,1015.674072265625,22.190000534057617,10.384136199951172,2.5861563682556152,0,0,0.0,0.0,0.0,0,False,0.0,0.0,0.0,0.0,0.0,8548,0,0,0,0,8548
0.0,0.0,0.0,0.0,0.0,0.0,1015.7511596679688,22.239999771118164,9.744706153869629,-0.48879504203796387,0,0,0.0,0.0,0.0,0,False,0.0,0.0,0.0,0.0,0.0,8598,0,0,0,0,8598
0.0,0.0,0.0,0.0,0.0,0.0,1015.7511596679688,22.239999771118164,9.744706153869629,-0.3910360336303711,0,0,0.0,0.0,0.0,0,False,0.0,0.0,0.0,0.0,0.0,8648,0,0,0,0,8648
0.0,0.0,0.0,0.0,0.0,0.0,1015.827880859375,22.290000915527344,9.107917785644531,-2.8599822521209717,0,0,0.0,0.0,0.0,0,False,0.0,0.0,0.0,0.0,0.0,8698,0,0,0,0,8698
0.0,0.0,0.0,0.0,0.0,0.0,1015.827880859375,22.290000915527344,9.107917785644531,-2.2879858016967773,0,0,0.0,0.0,0.0,0,False,0.0,0.0,0.0,0.0,0.0,8748,0,0,0,0,8748
0.0,0.0,0.0,0.0,0.0,0.0,1015.7435302734375,22.229999542236328,9.808120727539062,0.9704231023788452,0,0,0.0,0.0,0.0,0,False,0.0,0.0,0.0,0.0,0.0,8798,0,0,0,0,8798
0.0,0.0,0.0,0.0,0.0,0.0,1015.7435302734375,22.229999542236328,9.808120727539062,0.776338517665863,0,0,0.0,0.0,0.0,0,False,0.0,0.0,0.0,0.0,0.0,8848,0,0,0,0,8848
0.0,0.0,0.0,0.0,0.0,0.0,1015.662841796875,22.18000030517578,10.476615905761719,3.2950515747070312,0,0,0.0,0.0,0.0,0,False,0.0,0.0,0.0,0.0,0.0,8898,0,0,0,0,8898
0.0,0.0,0.0,0.0,0.0,0.0,1015.662841796875,22.18000030517578,10.476615905761719,2.6360414028167725,0,0,0.0,0.0,0.0,0,False,0.0,0.0,0.0,0.0,0.0,8948,0,0,0,0,8948
0.0,0.0,0.0,0.0,0.0,0.0,1015.7402954101562,22.229999542236328,9.834543228149414,-0.4594576358795166,0,0,0.0,0.0,0.0,0,False,0.0,0.0,0.0,0.0,0.0,8998,0,0,0,0,8998
0.0,0.0,0.0,0.0,0.0,0.0,1015.7402954101562,22.229999542236328,9.834543228149414,-0.3675661087036133,0,0,0.0,0.0,0.0,0,False,0.0,0.0,0.0,0.0,0.0,9048,0,0,0,0,9048
0.0,0.0,0.0,0.0,0.0,0.0,1015.81640625,22.280000686645508,9.20304012298584,-2.8200652599334717,0,0,0.0,0.0,0.0,0,False,0.0,0.0,0.0,0.0,0.0,9098,0,0,0,0,9098
0.0,0.0,0.0,0.0,0.0,0.0,1015.81640625,22.280000686645508,9.20304012298584,-2.256052255630493,0,0,0.0,0.0,0.0,0,False,0.0,0.0,0.0,0.0,0.0,9148,0,0,0,0,9148
0.0,0.0,0.0,0.0,0.0,0.0,1015.7352905273438,22.229999542236328,9.876819610595703,0.8902760744094849,0,0,0.0,0.0,0.0,0,False,0.0,0.0,0.0,0.0,0.0,9198,0,0,0,0,9198
0.0,0.0,0.0,0.0,0.0,0.0,1015.7352905273438,22.229999542236328,9.876819610595703,0.7122208476066589,0,0,0.0,0.0,0.0,0,False,0.0,0.0,0.0,0.0,0.0,9248,0,0,0,0,9248
0.0,0.0,0.0,0.0,0.0,0.0,1015.6565551757812,22.18000030517578,10.529461860656738,3.1803457736968994,0,0,0.0,0.0,0.0,0,False,0.0,0.0,0.0,0.0,0.0,9298,0,0,0,0,9298
0.0,0.0,0.0,0.0,0.0,0.0,1015.6565551757812,22.18000030517578,10.529461860656738,2.544276714324951,0,0,0.0,0.0,0.0,0,False,0.0,0.0,0.0,0.0,0.0,9348,0,0,0,0,9348
0.0,0.0,0.0,0.0,0.0,0.0,1015.7391967773438,22.229999542236328,9.842470169067383,-0.7125453948974609,0,0,0.0,0.0,0.0,0,False,0.0,0.0,0.0,0.0,0.0,9398,0,0,0,0,9398
0.0,0.0,0.0,0.0,0.0,0.0,1015.7391967773438,22.229999542236328,9.842470169067383,-0.5700363516807556,0,0,0.0,0.0,0.0,0,False,0.0,0.0,0.0,0.0,0.0,9448,0,0,0,0,9448
0.0,0.0,0.0,0.0,0.0,0.0,1015.8156127929688,22.280000686645508,9.208324432373047,-2.99261212348938,0,0,0.0,0.0,0.0,0,False,0.0,0.0,0.0,0.0,0.0,9498,0,0,0,0,9498
0.0,0.0,0.0,0.0,0.0,0.0,1015.8156127929688,22.280000686645508,9.208324432373047,-2.394089698791504,0,0,0.0,0.0,0.0,0,False,0.0,0.0,0.0,0.0,0.0,9548,0,0,0,0,9548
0.0,0.0,0.0,0.0,0.0,0.0,1015.7313232421875,22.219999313354492,9.908527374267578,0.8855400085449219,0,0,0.0,0.0,0.0,0,False,0.0,0.0,0.0,0.0,0.0,9598,0,0,0,0,9598
0.0,0.0,0.0,0.0,0.0,0.0,1015.7313232421875,22.219999313354492,9.908527374267578,0.7084320187568665,0,0,0.0,0.0,0.0,0,False,0.0,0.0,0.0,0.0,0.0,9648,0,0,0,0,9648
0.0,0.0,0.0,0.0,0.0,0.0,1015.6522827148438,22.170000076293945,10.563811302185059,3.1878814697265625,0,0,0.0,0.0,0.0,0,False,0.0,0.0,0.0,0.0,0.0,9698,0,0,0,0,9698
0.0,0.0,0.0,0.0,0.0,0.0,1015.6522827148438,22.170000076293945,10.563811302185059,2.550305128097534,0,0,0.0,0.0,0.0,0,False,0.0,0.0,0.0,0.0,0.0,9748,0,0,0,0,9748
0.0,0.0,0.0,0.0,0.0,0.0,1015.7313232421875,22.219999313354492,9.908527374267578,-0.5808916091918945,0,0,0.0,0.0,0.0,0,False,0.0,0.0,0.0,0.0,0.0,9798,0,0,0,0,9798
0.0,0.0,0.0,0.0,0.0,0.0,1015.7313232421875,22.219999313354492,9.908527374267578,-0.46471330523490906,0,0,0.0,0.0,0.0,0,False,0.0,0.0,0.0,0.0,0.0,9848,0,0,0,0,9848
0.0,0.0,0.0,0.0,0.0,0.0,1015.8076782226562,22.270000457763672,9.274381637573242,-2.858616828918457,0,0,0.0,0.0,0.0,0,False,0.0,0.0,0.0,0.0,0.0,9899,0,0,0,0,9899
0.0,0.0,0.0,0.0,0.0,0.0,1015.8076782226562,22.270000457763672,9.274381637573242,-2.286893606185913,0,0,0.0,0.0,0.0,0,False,0.0,0.0,0.0,0.0,0.0,9949,0,0,0,0,9949
0.0,0.0,0.0,0.0,0.0,0.0,1015.7249755859375,22.219999313354492,9.961372375488281,0.9184480905532837,0,0,0.0,0.0,0.0,0,False,0.0,0.0,0.0,0.0,0.0,9999,0,0,0,0,9999
0.0,0.0,0.0,0.0,0.0,0.0,1015.7249755859375,22.219999313354492,9.961372375488281,0.7347584962844849,0,0,0.0,0.0,0.0,0,False,0.0,0.0,0.0,0.0,0.0,10049,0,0,0,0,10049
0.0,0.0,0.0,0.0,0.0,0.0,1015.64990234375,22.170000076293945,10.584949493408203,3.0821151733398438,0,0,0.0,0.0,0.0,0,False,0.0,0.0,0.0,0.0,0.0,10099,0,0,0,0,10099
0.0,0.0,0.0,0.0,0.0,0.0,1015.64990234375,22.170000076293945,10.584949493408203,2.4656922817230225,0,0,0.0,0.0,0.0,0,False,0.0,0.0,0.0,0.0,0.0,10149,0,0,0,0,10149
0.0,0.0,0.0,0.0,0.0,0.0,1015.7273559570312,22.219999313354492,9.942876815795898,-0.5957368612289429,0,0,0.0,0.0,0.0,0,False,0.0,0.0,0.0,0.0,0.0,10199,0,0,0,0,10199
0.0,0.0,0.0,0.0,0.0,0.0,1015.7273559570312,22.219999313354492,9.942876815795898,-0.47658950090408325,0,0,0.0,0.0,0.0,0,False,0.0,0.0,0.0,0.0,0.0,10249,0,0,0,0,10249
0.0,0.0,0.0,0.0,0.0,0.0,1015.8076782226562,22.270000457763672,9.274381637573242,-3.0552523136138916,0,0,0.0,0.0,0.0,0,False,0.0,0.0,0.0,0.0,0.0,10299,0,0,0,0,10299
0.0,0.0,0.0,0.0,0.0,0.0,1015.8076782226562,22.270000457763672,9.274381637573242,-2.444201946258545,0,0,0.0,0.0,0.0,0,False,0.0,0.0,0.0,0.0,0.0,10349,0,0,0,0,10349
0.0,0.0,0.0,0.0,0.0,0.0,1015.7266235351562,22.219999313354492,9.948161125183105,0.7397563457489014,0,0,0.0,0.0,0.0,0,False,0.0,0.0,0.0,0.0,0.0,10399,0,0,0,0,10399
0.0,0.0,0.0,0.0,0.0,0.0,1015.7266235351562,22.219999313354492,9.948161125183105,0.591805100440979,0,0,0.0,0.0,0.0,0,False,0.0,0.0,0.0,0.0,0.0,10449,0,0,0,0,10449
0.0,0.0,0.0,0.0,0.0,0.0,1015.6475830078125,22.170000076293945,10.603445053100586,3.0945796966552734,0,0,0.0,0.0,0.0,0,False,0.0,0.0,0.0,0.0,0.0,10499,0,0,0,0,10499
0.0,0.0,0.0,0.0,0.0,0.0,1015.6475830078125,22.170000076293945,10.603445053100586,2.475663900375366,0,0,0.0,0.0,0.0,0,False,0.0,0.0,0.0,0.0,0.0,10549,0,0,0,0,10549
0.0,0.0,0.0,0.0,0.0,0.0,1015.72900390625,22.219999313354492,9.927022933959961,-0.7251573801040649,0,0,0.0,0.0,0.0,0,False,0.0,0.0,0.0,0.0,0.0,10599,0,0,0,0,10599
0.0,0.0,0.0,0.0,0.0,0.0,1015.72900390625,22.219999313354492,9.927022933959961,-0.5801259279251099,0,0,0.0,0.0,0.0,0,False,0.0,0.0,0.0,0.0,0.0,10649,0,0,0,0,10649
0.0,0.0,0.0,0.0,0.0,0.0,1015.8052978515625,22.270000457763672,9.295519828796387,-2.9901132583618164,0,0,0.0,0.0,0.0,0,False,0.0,0.0,0.0,0.0,0.0,10699,0,0,0,0,10699
0.0,0.0,0.0,0.0,0.0,0.0,1015.8052978515625,22.270000457763672,9.295519828796387,-2.3920905590057373,0,0,0.0,0.0,0.0,0,False,0.0,0.0,0.0,0.0,0.0,10749,0,0,0,0,10749
0.0,0.0,0.0,0.0,0.0,0.0,1015.720703125,22.219999313354492,9.995721817016602,0.8871355056762695,0,0,0.0,0.0,0.0,0,False,0.0,0.0,0.0,0.0,0.0,10799,0,0,0,0,10799
0.0,0.0,0.0,0.0,0.0,0.0,1015.720703125,22.219999313354492,9.995721817016602,0.7097083926200867,0,0,0.0,0.0,0.0,0,False,0.0,0.0,0.0,0.0,0.0,10849,0,0,0,0,10849
0.0,0.0,0.0,0.0,0.0,0.0,1015.644287109375,22.170000076293945,10.6325101852417,3.114920139312744,0,0,0.0,0.0,0.0,0,False,0.0,0.0,0.0,0.0,0.0,10899,0,0,0,0,10899
0.0,0.0,0.0,0.0,0.0,0.0,1015.644287109375,22.170000076293945,10.6325101852417,2.491936206817627,0,0,0.0,0.0,0.0,0,False,0.0,0.0,0.0,0.0,0.0,10949,0,0,0,0,10949
0.0,0.0,0.0,0.0,0.0,0.0,1015.723388671875,22.219999313354492,9.974583625793457,-0.6381572484970093,0,0,0.0,0.0,0.0,0,False,0.0,0.0,0.0,0.0,0.0,10999,0,0,0,0,10999
0.0,0.0,0.0,0.0,0.0,0.0,1015.723388671875,22.219999313354492,9.974583625793457,-0.5105258226394653,0,0,0.0,0.0,0.0,0,False,0.0,0.0,0.0,0.0,0.0,11049,0,0,0,0,11049
0.0,0.0,0.0,0.0,0.0,0.0,1015.7965087890625,22.270000457763672,9.366861343383789,-2.8393096923828125,0,0,0.0,0.0,0.0,0,False,0.0,0.0,0.0,0.0,0.0,11099,0,0,0,0,11099
0.0,0.0,0.0,0.0,0.0,0.0,1015.7965087890625,22.270000457763672,9.366861343383789,-2.2714478969573975,0,0,0.0,0.0,0.0,0,False,0.0,0.0,0.0,0.0,0.0,11149,0,0,0,0,11149
0.0,0.0,0.0,0.0,0.0,0.0,1015.7118530273438,22.209999084472656,10.069705963134766,0.9942201375961304,0,0,0.0,0.0,0.0,0,False,0.0,0.0,0.0,0.0,0.0,11199,0,0,0,0,11199
0.0,0.0,0.0,0.0,0.0,0.0,1015.7118530273438,22.209999084472656,10.069705963134766,0.7953761219978333,0,0,0.0,0.0,0.0,0,False,0.0,0.0,0.0,0.0,0.0,11249,0,0,0,0,11249
0.0,0.0,0.0,0.0,0.0,0.0,1015.635498046875,22.15999984741211,10.703851699829102,3.172883987426758,0,0,0.0,0.0,0.0,0,False,0.0,0.0,0.0,0.0,0.0,11299,0,0,0,0,11299
0.0,0.0,0.0,0.0,0.0,0.0,1015.635498046875,22.15999984741211,10.703851699829102,2.5383071899414062,0,0,0.0,0.0,0.0,0,False,0.0,0.0,0.0,0.0,0.0,11350,0,0,0,0,11350
0.0,0.0,0.0,0.0,0.0,0.0,1015.7157592773438,22.219999313354492,10.03799819946289,-0.6327681541442871,0,0,0.0,0.0,0.0,0,False,0.0,0.0,0.0,0.0,0.0,11400,0,0,0,0,11400
0.0,0.0,0.0,0.0,0.0,0.0,1015.7157592773438,22.219999313354492,10.03799819946289,-0.5062145590782166,0,0,0.0,0.0,0.0,0,False,0.0,0.0,0.0,0.0,0.0,11450,0,0,0,0,11450
0.0,0.0,0.0,0.0,0.0,0.0,1015.7909545898438,22.270000457763672,9.414422035217285,-2.8992762565612793,0,0,0.0,0.0,0.0,0,False,0.0,0.0,0.0,0.0,0.0,11500,0,0,0,0,11500
0.0,0.0,0.0,0.0,0.0,0.0,1015.7909545898438,22.270000457763672,9.414422035217285,-2.3194210529327393,0,0,0.0,0.0,0.0,0,False,0.0,0.0,0.0,0.0,0.0,11550,0,0,0,0,11550
0.0,0.0,0.0,0.0,0.0,0.0,1015.7078247070312,22.209999084472656,10.104055404663086,0.9029966592788696,0,0,0.0,0.0,0.0,0,False,0.0,0.0,0.0,0.0,0.0,11600,0,0,0,0,11600
0.0,0.0,0.0,0.0,0.0,0.0,1015.7078247070312,22.209999084472656,10.104055404663086,0.7223973274230957,0,0,0.0,0.0,0.0,0,False,0.0,0.0,0.0,0.0,0.0,11650,0,0,0,0,11650
0.0,0.0,0.0,0.0,0.0,0.0,1015.6328125,22.15999984741211,10.727632522583008,3.0722262859344482,0,0,0.0,0.0,0.0,0,False,0.0,0.0,0.0,0.0,0.0,11700,0,0,0,0,11700
0.0,0.0,0.0,0.0,0.0,0.0,1015.6328125,22.15999984741211,10.727632522583008,2.4577810764312744,0,0,0.0,0.0,0.0,0,False,0.0,0.0,0.0,0.0,0.0,11750,0,0,0,0,11750
0.0,0.0,0.0,0.0,0.0,0.0,1015.7134399414062,22.209999084472656,10.05649471282959,-0.7183263301849365,0,0,0.0,0.0,0.0,0,False,0.0,0.0,0.0,0.0,0.0,11800,0,0,0,0,11800
0.0,0.0,0.0,0.0,0.0,0.0,1015.7134399414062,22.209999084472656,10.05649471282959,-0.5746610760688782,0,0,0.0,0.0,0.0,0,False,0.0,0.0,0.0,0.0,0.0,11850,0,0,0,0,11850
0.0,0.0,0.0,0.0,0.0,0.0,1015.7882690429688,22.260000228881836,9.43556022644043,-2.943466901779175,0,0,0.0,0.0,0.0,0,False,0.0,0.0,0.0,0.0,0.0,11900,0,0,0,0,11900
0.0,0.0,0.0,0.0,0.0,0.0,1015.7882690429688,22.260000228881836,9.43556022644043,-2.35477352142334,0,0,0.0,0.0,0.0,0,False,0.0,0.0,0.0,0.0,0.0,11950,0,0,0,0,11950
0.0,0.0,0.0,0.0,0.0,0.0,1015.7054443359375,22.209999084472656,10.122550964355469,0.8641440868377686,0,0,0.0,0.0,0.0,0,False,0.0,0.0,0.0,0.0,0.0,12000,0,0,0,0,12000
0.0,0.0,0.0,0.0,0.0,0.0,1015.7054443359375,22.209999084472656,10.122550964355469,0.6913152933120728,0,0,0.0,0.0,0.0,0,False,0.0,0.0,0.0,0.0,0.0,12050,0,0,0,0,12050
0.0,0.0,0.0,0.0,0.0,0.0,1015.6304931640625,22.15999984741211,10.74612808227539,3.04736065864563,0,0,0.0,0.0,0.0,0,False,0.0,0.0,0.0,0.0,0.0,12100,0,0,0,0,12100
0.0,0.0,0.0,0.0,0.0,0.0,1015.6304931640625,22.15999984741211,10.74612808227539,2.4378886222839355,0,0,0.0,0.0,0.0,0,False,0.0,0.0,0.0,0.0,0.0,12150,0,0,0,0,12150
0.0,0.0,0.0,0.0,0.0,0.0,1015.7078247070312,22.209999084472656,10.104055404663086,-0.6179797649383545,0,0,0.0,0.0,0.0,0,False,0.0,0.0,0.0,0.0,0.0,12200,0,0,0,0,12200
0.0,0.0,0.0,0.0,0.0,0.0,1015.7078247070312,22.209999084472656,10.104055404663086,-0.4943838119506836,0,0,0.0,0.0,0.0,0,False,0.0,0.0,0.0,0.0,0.0,12250,0,0,0,0,12250
0.0,0.0,0.0,0.0,0.0,0.0,1015.7843017578125,22.260000228881836,9.46990966796875,-2.9320900440216064,0,0,0.0,0.0,0.0,0,False,0.0,0.0,0.0,0.0,0.0,12300,0,0,0,0,12300
0.0,0.0,0.0,0.0,0.0,0.0,1015.7843017578125,22.260000228881836,9.46990966796875,-2.345672130584717,0,0,0.0,0.0,0.0,0,False,0.0,0.0,0.0,0.0,0.0,12350,0,0,0,0,12350
0.0,0.0,0.0,0.0,0.0,0.0,1015.7039184570312,22.209999084472656,10.135763168334961,0.7868763208389282,0,0,0.0,0.0,0.0,0,False,0.0,0.0,0.0,0.0,0.0,12400,0,0,0,0,12400
0.0,0.0,0.0,0.0,0.0,0.0,1015.7039184570312,22.209999084472656,10.135763168334961,0.6295010447502136,0,0,0.0,0.0,0.0,0,False,0.0,0.0,0.0,0.0,0.0,12450,0,0,0,0,12450
0.0,0.0,0.0,0.0,0.0,0.0,1015.62646484375,22.15999984741211,10.780477523803711,3.082458257675171,0,0,0.0,0.0,0.0,0,False,0.0,0.0,0.0,0.0,0.0,12500,0,0,0,0,12500
0.0,0.0,0.0,0.0,0.0,0.0,1015.62646484375,22.15999984741211,10.780477523803711,2.4659667015075684,0,0,0.0,0.0,0.0,0,False,0.0,0.0,0.0,0.0,0.0,12550,0,0,0,0,12550
0.0,0.0,0.0,0.0,0.0,0.0,1015.7078247070312,22.209999084472656,10.104055404663086,-0.7329150438308716,0,0,0.0,0.0,0.0,0,False,0.0,0.0,0.0,0.0,0.0,12600,0,0,0,0,12600
0.0,0.0,0.0,0.0,0.0,0.0,1015.7078247070312,22.209999084472656,10.104055404663086,-0.5863320231437683,0,0,0.0,0.0,0.0,0,False,0.0,0.0,0.0,0.0,0.0,12650,0,0,0,0,12650
0.0,0.0,0.0,0.0,0.0,0.0,1015.7843017578125,22.260000228881836,9.46990966796875,-3.005648612976074,0,0,0.0,0.0,0.0,0,False,0.0,0.0,0.0,0.0,0.0,12700,0,0,0,0,12700
0.0,0.0,0.0,0.0,0.0,0.0,1015.7843017578125,22.260000228881836,9.46990966796875,-2.4045188426971436,0,0,0.0,0.0,0.0,0,False,0.0,0.0,0.0,0.0,0.0,12750,0,0,0,0,12750
0.0,0.0,0.0,0.0,0.0,0.0,1015.702880859375,22.209999084472656,10.143689155578613,0.7715028524398804,0,0,0.0,0.0,0.0,0,False,0.0,0.0,0.0,0.0,0.0,12800,0,0,0,0,12800
0.0,0.0,0.0,0.0,0.0,0.0,1015.702880859375,22.209999084472656,10.143689155578613,0.6172022819519043,0,0,0.0,0.0,0.0,0,False,0.0,0.0,0.0,0.0,0.0,12850,0,0,0,0,12850
0.0,0.0,0.0,0.0,0.0,0.0,1015.6260986328125,22.149999618530273,10.783120155334473,3.051485776901245,0,0,0.0,0.0,0.0,0,False,0.0,0.0,0.0,0.0,0.0,12900,0,0,0,0,12900
0.0,0.0,0.0,0.0,0.0,0.0,1015.6260986328125,22.149999618530273,10.783120155334473,2.4411885738372803,0,0,0.0,0.0,0.0,0,False,0.0,0.0,0.0,0.0,0.0,12950,0,0,0,0,12950
0.0,0.0,0.0,0.0,0.0,0.0,1015.71044921875,22.209999084472656,10.082917213439941,-0.8478609323501587,0,0,0.0,0.0,0.0,0,False,0.0,0.0,0.0,0.0,0.0,13000,0,0,0,0,13000
0.0,0.0,0.0,0.0,0.0,0.0,1015.71044921875,22.209999084472656,10.082917213439941,-0.6782887578010559,0,0,0.0,0.0,0.0,0,False,0.0,0.0,0.0,0.0,0.0,13050,0,0,0,0,13050
0.0,0.0,0.0,0.0,0.0,0.0,1015.786865234375,22.260000228881836,9.448771476745605,-3.079214096069336,0,0,0.0,0.0,0.0,0,False,0.0,0.0,0.0,0.0,0.0,13100,0,0,0,0,13100
0.0,0.0,0.0,0.0,0.0,0.0,1015.786865234375,22.260000228881836,9.448771476745605,-2.4633712768554688,0,0,0.0,0.0,0.0,0,False,0.0,0.0,0.0,0.0,0.0,13150,0,0,0,0,13150
0.0,0.0,0.0,0.0,0.0,0.0,1015.6998291015625,22.200000762939453,10.170112609863281,0.9146674871444702,0,0,0.0,0.0,0.0,0,False,0.0,0.0,0.0,0.0,0.0,13200,0,0,0,0,13200
0.0,0.0,0.0,0.0,0.0,0.0,1015.6998291015625,22.200000762939453,10.170112609863281,0.7317339777946472,0,0,0.0,0.0,0.0,0,False,0.0,0.0,0.0,0.0,0.0,13250,0,0,0,0,13250
0.0,0.0,0.0,0.0,0.0,0.0,1015.6250610351562,22.149999618530273,10.791046142578125,3.0691213607788086,0,0,0.0,0.0,0.0,0,False,0.0,0.0,0.0,0.0,0.0,13300,0,0,0,0,13300
0.0,0.0,0.0,0.0,0.0,0.0,1015.6250610351562,22.149999618530273,10.791046142578125,2.4552972316741943,0,0,0.0,0.0,0.0,0,False,0.0,0.0,0.0,0.0,0.0,13350,0,0,0,0,13350
0.0,0.0,0.0,0.0,0.0,0.0,1015.703857421875,22.200000762939453,10.135763168334961,-0.6568940877914429,0,0,0.0,0.0,0.0,0,False,0.0,0.0,0.0,0.0,0.0,13400,0,0,0,0,13400
0.0,0.0,0.0,0.0,0.0,0.0,1015.703857421875,22.200000762939453,10.135763168334961,-0.5255152583122253,0,0,0.0,0.0,0.0,0,False,0.0,0.0,0.0,0.0,0.0,13450,0,0,0,0,13450
0.0,0.0,0.0,0.0,0.0,0.0,1015.7828369140625,22.25,9.480478286743164,-3.0415518283843994,0,0,0.0,0.0,0.0,0,False,0.0,0.0,0.0,0.0,0.0,13500,0,0,0,0,13500
0.0,0.0,0.0,0.0,0.0,0.0,1015.7828369140625,22.25,9.480478286743164,-2.433241605758667,0,0,0.0,0.0,0.0,0,False,0.0,0.0,0.0,0.0,0.0,13550,0,0,0,0,13550
0.0,0.0,0.0,0.0,0.0,0.0,1015.7014770507812,22.200000762939453,10.156900405883789,0.7590951919555664,0,0,0.0,0.0,0.0,0,False,0.0,0.0,0.0,0.0,0.0,13600,0,0,0,0,13600
0.0,0.0,0.0,0.0,0.0,0.0,1015.7014770507812,22.200000762939453,10.156900405883789,0.6072761416435242,0,0,0.0,0.0,0.0,0,False,0.0,0.0,0.0,0.0,0.0,13650,0,0,0,0,13650
0.0,0.0,0.0,0.0,0.0,0.0,1015.62109375,22.149999618530273,10.825396537780762,3.107374429702759,0,0,0.0,0.0,0.0,0,False,0.0,0.0,0.0,0.0,0.0,13701,0,0,0,0,13701
0.0,0.0,0.0,0.0,0.0,0.0,1015.62109375,22.149999618530273,10.825396537780762,2.4858996868133545,0,0,0.0,0.0,0.0,0,False,0.0,0.0,0.0,0.0,0.0,13751,0,0,0,0,13751
0.0,0.0,0.0,0.0,0.0,0.0,1015.703857421875,22.200000762939453,10.135763168334961,-0.7698136568069458,0,0,0.0,0.0,0.0,0,False,0.0,0.0,0.0,0.0,0.0,13801,0,0,0,0,13801
0.0,0.0,0.0,0.0,0.0,0.0,1015.703857421875,22.200000762939453,10.135763168334961,-0.6158509254455566,0,0,0.0,0.0,0.0,0,False,0.0,0.0,0.0,0.0,0.0,13851,0,0,0,0,13851
0.0,0.0,0.0,0.0,0.0,0.0,1015.780517578125,22.25,9.498974800109863,-3.0398342609405518,0,0,0.0,0.0,0.0,0,False,0.0,0.0,0.0,0.0,0.0,13901,0,0,0,0,13901
0.0,0.0,0.0,0.0,0.0,0.0,1015.780517578125,22.25,9.498974800109863,-2.4318673610687256,0,0,0.0,0.0,0.0,0,False,0.0,0.0,0.0,0.0,0.0,13952,0,0,0,0,13952
0.0,0.0,0.0,0.0,0.0,0.0,1015.6991577148438,22.200000762939453,10.175396919250488,0.7601945400238037,0,0,0.0,0.0,0.0,0,False,0.0,0.0,0.0,0.0,0.0,14002,0,0,0,0,14002
0.0,0.0,0.0,0.0,0.0,0.0,1015.6991577148438,22.200000762939453,10.175396919250488,0.6081556677818298,0,0,0.0,0.0,0.0,0,False,0.0,0.0,0.0,0.0,0.0,14052,0,0,0,0,14052
0.0,0.0,0.0,0.0,0.0,0.0,1015.6243896484375,22.149999618530273,10.796331405639648,2.9702625274658203,0,0,0.0,0.0,0.0,0,False,0.0,0.0,0.0,0.0,0.0,14102,0,0,0,0,14102
0.0,0.0,0.0,0.0,0.0,0.0,1015.6243896484375,22.149999618530273,10.796331405639648,2.3762099742889404,0,0,0.0,0.0,0.0,0,False,0.0,0.0,0.0,0.0,0.0,14152,0,0,0,0,14152
0.0,0.0,0.0,0.0,0.0,0.0,1015.708740234375,22.200000762939453,10.096128463745117,-0.8998438119888306,0,0,0.0,0.0,0.0,0,False,0.0,0.0,0.0,0.0,0.0,14202,0,0,0,0,14202
0.0,0.0,0.0,0.0,0.0,0.0,1015.708740234375,22.200000762939453,10.096128463745117,-0.7198750376701355,0,0,0.0,0.0,0.0,0,False,0.0,0.0,0.0,0.0,0.0,14252,0,0,0,0,14252
0.0,0.0,0.0,0.0,0.0,0.0,1015.7854614257812,22.25,9.459341049194336,-3.123049736022949,0,0,0.0,0.0,0.0,0,False,0.0,0.0,0.0,0.0,0.0,14302,0,0,0,0,14302
0.0,0.0,0.0,0.0,0.0,0.0,1015.7854614257812,22.25,9.459341049194336,-2.4984397888183594,0,0,0.0,0.0,0.0,0,False,0.0,0.0,0.0,0.0,0.0,14352,0,0,0,0,14352
0.0,0.0,0.0,0.0,0.0,0.0,1015.7040405273438,22.200000762939453,10.135763168334961,0.7069365978240967,0,0,0.0,0.0,0.0,0,False,0.0,0.0,0.0,0.0,0.0,14402,0,0,0,0,14402
0.0,0.0,0.0,0.0,0.0,0.0,1015.7040405273438,22.200000762939453,10.135763168334961,0.5655493140220642,0,0,0.0,0.0,0.0,0,False,0.0,0.0,0.0,0.0,0.0,14452,0,0,0,0,14452
0.0,0.0,0.0,0.0,0.0,0.0,1015.6292724609375,22.149999618530273,10.756696701049805,2.936173677444458,0,0,0.0,0.0,0.0,0,False,0.0,0.0,0.0,0.0,0.0,14502,0,0,0,0,14502
0.0,0.0,0.0,0.0,0.0,0.0,1015.6292724609375,22.149999618530273,10.756696701049805,2.3489389419555664,0,0,0.0,0.0,0.0,0,False,0.0,0.0,0.0,0.0,0.0,14552,0,0,0,0,14552
0.0,0.0,0.0,0.0,0.0,0.0,1015.7064208984375,22.200000762939453,10.1146240234375,-0.6891394853591919,0,0,0.0,0.0,0.0,0,False,0.0,0.0,0.0,0.0,0.0,14602,0,0,0,0,14602
0.0,0.0,0.0,0.0,0.0,0.0,1015.7064208984375,22.200000762939453,10.1146240234375,-0.5513116121292114,0,0,0.0,0.0,0.0,0,False,0.0,0.0,0.0,0.0,0.0,14652,0,0,0,0,14652
0.0,0.0,0.0,0.0,0.0,0.0,1015.7828369140625,22.25,9.480478286743164,-2.9776322841644287,0,0,0.0,0.0,0.0,0,False,0.0,0.0,0.0,0.0,0.0,14702,0,0,0,0,14702
0.0,0.0,0.0,0.0,0.0,0.0,1015.7056274414062,22.25,10.122550964355469,0.18618488311767578,0,0,0.0,0.0,0.0,0,False,0.0,0.0,0.0,0.0,0.0,14752,0,0,0,0,14752
0.0,0.0,0.0,0.0,0.0,0.0,1015.7056274414062,22.200000762939453,10.122550964355469,0.14894790947437286,0,0,0.0,0.0,0.0,0,False,0.0,0.0,0.0,0.0,0.0,14802,0,0,0,0,14802
0.0,0.0,0.0,0.0,0.0,0.0,1015.7073364257812,22.200000762939453,10.106698036193848,0.055746614933013916,0,0,0.0,0.0,0.0,0,False,0.0,0.0,0.0,0.0,0.0,14852,0,0,0,0,14852
0.0,0.0,0.0,0.0,0.0,0.0,1015.626953125,22.149999618530273,10.775193214416504,2.666147232055664,0,0,0.0,0.0,0.0,0,False,0.0,0.0,0.0,0.0,0.0,14903,0,0,0,0,14903
0.0,0.0,0.0,0.0,0.0,0.0,1015.709716796875,22.200000762939453,10.088201522827148,-0.615048885345459,0,0,0.0,0.0,0.0,0,False,0.0,0.0,0.0,0.0,0.0,14953,0,0,0,0,14953
0.0,0.0,0.0,0.0,0.0,0.0,1015.709716796875,22.200000762939453,10.088201522827148,-0.49203911423683167,0,0,0.0,0.0,0.0,0,False,0.0,0.0,0.0,0.0,0.0,15003,0,0,0,0,15003
0.0,0.0,0.0,0.0,0.0,0.0,1015.7876586914062,22.25,9.440844535827637,-2.9830591678619385,0,0,0.0,0.0,0.0,0,False,0.0,0.0,0.0,0.0,0.0,15053,0,0,0,0,15053
0.0,0.0,0.0,0.0,0.0,0.0,1015.7876586914062,22.25,9.440844535827637,-2.3864474296569824,0,0,0.0,0.0,0.0,0,False,0.0,0.0,0.0,0.0,0.0,15104,0,0,0,0,15104
0.0,0.0,0.0,0.0,0.0,0.0,1015.7047119140625,22.200000762939453,10.130477905273438,0.8493754863739014,0,0,0.0,0.0,0.0,0,False,0.0,0.0,0.0,0.0,0.0,15154,0,0,0,0,15154
0.0,0.0,0.0,0.0,0.0,0.0,1015.7047119140625,22.200000762939453,10.130477905273438,0.67950040102005,0,0,0.0,0.0,0.0,0,False,0.0,0.0,0.0,0.0,0.0,15204,0,0,0,0,15204
0.0,0.0,0.0,0.0,0.0,0.0,1015.6318969726562,22.149999618530273,10.732916831970215,2.9533560276031494,0,0,0.0,0.0,0.0,0,False,0.0,0.0,0.0,0.0,0.0,15254,0,0,0,0,15254
0.0,0.0,0.0,0.0,0.0,0.0,1015.6318969726562,22.149999618530273,10.732916831970215,2.362684965133667,0,0,0.0,0.0,0.0,0,False,0.0,0.0,0.0,0.0,0.0,15304,0,0,0,0,15304
0.0,0.0,0.0,0.0,0.0,0.0,1015.7145385742188,22.200000762939453,10.048567771911621,-0.8472481966018677,0,0,0.0,0.0,0.0,0,False,0.0,0.0,0.0,0.0,0.0,15354,0,0,0,0,15354
0.0,0.0,0.0,0.0,0.0,0.0,1015.7145385742188,22.200000762939453,10.048567771911621,-0.6777985692024231,0,0,0.0,0.0,0.0,0,False,0.0,0.0,0.0,0.0,0.0,15404,0,0,0,0,15404
0.0,0.0,0.0,0.0,0.0,0.0,1015.7893676757812,22.25,9.427633285522461,-3.0259768962860107,0,0,0.0,0.0,0.0,0,False,0.0,0.0,0.0,0.0,0.0,15454,0,0,0,0,15454
0.0,0.0,0.0,0.0,0.0,0.0,1015.7893676757812,22.25,9.427633285522461,-2.4207816123962402,0,0,0.0,0.0,0.0,0,False,0.0,0.0,0.0,0.0,0.0,15504,0,0,0,0,15504
0.0,0.0,0.0,0.0,0.0,0.0,1015.7079467773438,22.200000762939453,10.104055404663086,0.7690631151199341,0,0,0.0,0.0,0.0,0,False,0.0,0.0,0.0,0.0,0.0,15554,0,0,0,0,15554
0.0,0.0,0.0,0.0,0.0,0.0,1015.7079467773438,22.200000762939453,10.104055404663086,0.6152505278587341,0,0,0.0,0.0,0.0,0,False,0.0,0.0,0.0,0.0,0.0,15604,0,0,0,0,15604
0.0,0.0,0.0,0.0,0.0,0.0,1015.6295166015625,22.139999389648438,10.75405502319336,3.0921988487243652,0,0,0.0,0.0,0.0,0,False,0.0,0.0,0.0,0.0,0.0,15654,0,0,0,0,15654
0.0,0.0,0.0,0.0,0.0,0.0,1015.6295166015625,22.139999389648438,10.75405502319336,2.473759174346924,0,0,0.0,0.0,0.0,0,False,0.0,0.0,0.0,0.0,0.0,15705,0,0,0,0,15705
0.0,0.0,0.0,0.0,0.0,0.0,1015.712158203125,22.200000762939453,10.067063331604004,-0.7689594030380249,0,0,0.0,0.0,0.0,0,False,0.0,0.0,0.0,0.0,0.0,15755,0,0,0,0,15755
0.0,0.0,0.0,0.0,0.0,0.0,1015.712158203125,22.200000762939453,10.067063331604004,-0.6151675581932068,0,0,0.0,0.0,0.0,0,False,0.0,0.0,0.0,0.0,0.0,15805,0,0,0,0,15805
0.0,0.0,0.0,0.0,0.0,0.0,1015.78857421875,22.25,9.432917594909668,-3.028717041015625,0,0,0.0,0.0,0.0,0,False,0.0,0.0,0.0,0.0,0.0,15855,0,0,0,0,15855
0.0,0.0,0.0,0.0,0.0,0.0,1015.78857421875,22.25,9.432917594909668,-2.4229736328125,0,0,0.0,0.0,0.0,0,False,0.0,0.0,0.0,0.0,0.0,15905,0,0,0,0,15905
0.0,0.0,0.0,0.0,0.0,0.0,1015.7072143554688,22.190000534057617,10.109339714050293,0.7673095464706421,0,0,0.0,0.0,0.0,0,False,0.0,0.0,0.0,0.0,0.0,15955,0,0,0,0,15955
0.0,0.0,0.0,0.0,0.0,0.0,1015.7072143554688,22.190000534057617,10.109339714050293,0.6138476729393005,0,0,0.0,0.0,0.0,0,False,0.0,0.0,0.0,0.0,0.0,16005,0,0,0,0,16005
0.0,0.0,0.0,0.0,0.0,0.0,1015.6343994140625,22.139999389648438,10.714420318603516,2.911400556564331,0,0,0.0,0.0,0.0,0,False,0.0,0.0,0.0,0.0,0.0,16055,0,0,0,0,16055
0.0,0.0,0.0,0.0,0.0,0.0,1015.6343994140625,22.139999389648438,10.714420318603516,2.329120397567749,0,0,0.0,0.0,0.0,0,False,0.0,0.0,0.0,0.0,0.0,16105,0,0,0,0,16105
0.0,0.0,0.0,0.0,0.0,0.0,1015.7171020507812,22.200000762939453,10.027429580688477,-0.8846665620803833,0,0,0.0,0.0,0.0,0,False,0.0,0.0,0.0,0.0,0.0,16155,0,0,0,0,16155
0.0,0.0,0.0,0.0,0.0,0.0,1015.7171020507812,22.200000762939453,10.027429580688477,-0.7077332735061646,0,0,0.0,0.0,0.0,0,False,0.0,0.0,0.0,0.0,0.0,16205,0,0,0,0,16205
0.0,0.0,0.0,0.0,0.0,0.0,1015.7918701171875,22.25,9.406495094299316,-3.0012240409851074,0,0,0.0,0.0,0.0,0,False,0.0,0.0,0.0,0.0,0.0,16256,0,0,0,0,16256
0.0,0.0,0.0,0.0,0.0,0.0,1015.7918701171875,22.25,9.406495094299316,-2.4009792804718018,0,0,0.0,0.0,0.0,0,False,0.0,0.0,0.0,0.0,0.0,16306,0,0,0,0,16306
0.0,0.0,0.0,0.0,0.0,0.0,1015.7072143554688,22.190000534057617,10.109339714050293,0.8905950784683228,0,0,0.0,0.0,0.0,0,False,0.0,0.0,0.0,0.0,0.0,16356,0,0,0,0,16356
0.0,0.0,0.0,0.0,0.0,0.0,1015.7072143554688,22.190000534057617,10.109339714050293,0.7124760746955872,0,0,0.0,0.0,0.0,0,False,0.0,0.0,0.0,0.0,0.0,16406,0,0,0,0,16406
0.0,0.0,0.0,0.0,0.0,0.0,1015.6287231445312,22.139999389648438,10.761981964111328,3.1805498600006104,0,0,0.0,0.0,0.0,0,False,0.0,0.0,0.0,0.0,0.0,16456,0,0,0,0,16456
0.0,0.0,0.0,0.0,0.0,0.0,1015.6287231445312,22.139999389648438,10.761981964111328,2.5444400310516357,0,0,0.0,0.0,0.0,0,False,0.0,0.0,0.0,0.0,0.0,16508,0,0,0,0,16508
0.0,0.0,0.0,0.0,0.0,0.0,1015.7128295898438,22.200000762939453,10.061779022216797,-0.7652597427368164,0,0,0.0,0.0,0.0,0,False,0.0,0.0,0.0,0.0,0.0,16558,0,0,0,0,16558
0.0,0.0,0.0,0.0,0.0,0.0,1015.7128295898438,22.200000762939453,10.061779022216797,-0.61220782995224,0,0,0.0,0.0,0.0,0,False,0.0,0.0,0.0,0.0,0.0,16608,0,0,0,0,16608
0.0,0.0,0.0,0.0,0.0,0.0,1015.7879638671875,22.239999771118164,9.438201904296875,-2.984074831008911,0,0,0.0,0.0,0.0,0,False,0.0,0.0,0.0,0.0,0.0,16658,0,0,0,0,16658
0.0,0.0,0.0,0.0,0.0,0.0,1015.7879638671875,22.239999771118164,9.438201904296875,-2.3872599601745605,0,0,0.0,0.0,0.0,0,False,0.0,0.0,0.0,0.0,0.0,16708,0,0,0,0,16708
0.0,0.0,0.0,0.0,0.0,0.0,1015.7052612304688,22.190000534057617,10.12519359588623,0.8381587266921997,0,0,0.0,0.0,0.0,0,False,0.0,0.0,0.0,0.0,0.0,16758,0,0,0,0,16758
0.0,0.0,0.0,0.0,0.0,0.0,1015.7052612304688,22.190000534057617,10.12519359588623,0.6705269813537598,0,0,0.0,0.0,0.0,0,False,0.0,0.0,0.0,0.0,0.0,16808,0,0,0,0,16808
0.0,0.0,0.0,0.0,0.0,0.0,1015.6320190429688,22.139999389648438,10.732916831970215,2.9673144817352295,0,0,0.0,0.0,0.0,0,False,0.0,0.0,0.0,0.0,0.0,16858,0,0,0,0,16858
0.0,0.0,0.0,0.0,0.0,0.0,1015.6320190429688,22.139999389648438,10.732916831970215,2.3738515377044678,0,0,0.0,0.0,0.0,0,False,0.0,0.0,0.0,0.0,0.0,16909,0,0,0,0,16909
0.0,0.0,0.0,0.0,0.0,0.0,1015.7145385742188,22.200000762939453,10.048567771911621,-0.8383150100708008,0,0,0.0,0.0,0.0,0,False,0.0,0.0,0.0,0.0,0.0,16959,0,0,0,0,16959
0.0,0.0,0.0,0.0,0.0,0.0,1015.7145385742188,22.200000762939453,10.048567771911621,-0.6706520318984985,0,0,0.0,0.0,0.0,0,False,0.0,0.0,0.0,0.0,0.0,17009,0,0,0,0,17009
0.0,0.0,0.0,0.0,0.0,0.0,1015.78955078125,22.239999771118164,9.4249906539917,-3.030830144882202,0,0,0.0,0.0,0.0,0,False,0.0,0.0,0.0,0.0,0.0,17059,0,0,0,0,17059
0.0,0.0,0.0,0.0,0.0,0.0,1015.78955078125,22.239999771118164,9.4249906539917,-2.424664258956909,0,0,0.0,0.0,0.0,0,False,0.0,0.0,0.0,0.0,0.0,17110,0,0,0,0,17110
0.0,0.0,0.0,0.0,0.0,0.0,1015.7283325195312,22.200000762939453,9.932307243347168,0.08953487873077393,0,0,0.0,0.0,0.0,0,False,0.0,0.0,0.0,0.0,0.0,17160,0,0,0,0,17160
0.0,0.0,0.0,0.0,0.0,0.0,1015.7283325195312,22.200000762939453,9.932307243347168,0.0716279074549675,0,0,0.0,0.0,0.0,0,False,0.0,0.0,0.0,0.0,0.0,17210,0,0,0,0,17210
0.0,0.0,0.0,0.0,0.0,0.0,1015.6654663085938,22.15999984741211,10.455477714538574,2.149984121322632,0,0,0.0,0.0,0.0,0,False,0.0,0.0,0.0,0.0,0.0,17260,0,0,0,0,17260
0.0,0.0,0.0,0.0,0.0,0.0,1015.6654663085938,22.15999984741211,10.455477714538574,1.7199872732162476,0,0,0.0,0.0,0.0,0,False,0.0,0.0,0.0,0.0,0.0,17310,0,0,0,0,17310
0.0,0.0,0.0,0.0,0.0,0.0,1015.7445068359375,22.209999084472656,9.800193786621094,-1.2451459169387817,0,0,0.0,0.0,0.0,0,False,0.0,0.0,0.0,0.0,0.0,17360,0,0,0,0,17360
0.0,0.0,0.0,0.0,0.0,0.0,1015.7445068359375,22.209999084472656,9.800193786621094,-0.9961167573928833,0,0,0.0,0.0,0.0,0,False,0.0,0.0,0.0,0.0,0.0,17410,0,0,0,0,17410
0.0,0.0,0.0,0.0,0.0,0.0,1015.817626953125,22.260000228881836,9.19247055053711,-3.2277863025665283,0,0,0.0,0.0,0.0,0,False,0.0,0.0,0.0,0.0,0.0,17460,0,0,0,0,17460
0.0,0.0,0.0,0.0,0.0,0.0,1015.817626953125,22.260000228881836,9.19247055053711,-2.5822291374206543,0,0,0.0,0.0,0.0,0,False,0.0,0.0,0.0,0.0,0.0,17510,0,0,0,0,17510
0.0,0.0,0.0,0.0,0.0,0.0,1015.7468872070312,22.219999313354492,9.77905559539795,0.28055691719055176,0,0,0.0,0.0,0.0,0,False,0.0,0.0,0.0,0.0,0.0,17560,0,0,0,0,17560
0.0,0.0,0.0,0.0,0.0,0.0,1015.7468872070312,22.219999313354492,9.77905559539795,0.22444553673267365,0,0,0.0,0.0,0.0,0,False,0.0,0.0,0.0,0.0,0.0,17610,0,0,0,0,17610
0.0,0.0,0.0,0.0,0.0,0.0,1015.6800537109375,22.170000076293945,10.333932876586914,2.3990654945373535,0,0,0.0,0.0,0.0,0,False,0.0,0.0,0.0,0.0,0.0,17660,0,0,0,0,17660
0.0,0.0,0.0,0.0,0.0,0.0,1015.6800537109375,22.170000076293945,10.333932876586914,1.9192523956298828,0,0,0.0,0.0,0.0,0,False,0.0,0.0,0.0,0.0,0.0,17710,0,0,0,0,17710
0.0,0.0,0.0,0.0,0.0,0.0,1015.7591552734375,22.219999313354492,9.678648948669434,-1.0857337713241577,0,0,0.0,0.0,0.0,0,False,0.0,0.0,0.0,0.0,0.0,17760,0,0,0,0,17760
0.0,0.0,0.0,0.0,0.0,0.0,1015.7591552734375,22.219999313354492,9.678648948669434,-0.8685870170593262,0,0,0.0,0.0,0.0,0,False,0.0,0.0,0.0,0.0,0.0,17810,0,0,0,0,17810
0.0,0.0,0.0,0.0,0.0,0.0,1015.8298950195312,22.270000457763672,9.089422225952148,-3.05177640914917,0,0,0.0,0.0,0.0,0,False,0.0,0.0,0.0,0.0,0.0,17860,0,0,0,0,17860
0.0,0.0,0.0,0.0,0.0,0.0,1015.8298950195312,22.270000457763672,9.089422225952148,-2.4414212703704834,0,0,0.0,0.0,0.0,0,False,0.0,0.0,0.0,0.0,0.0,17910,0,0,0,0,17910
0.0,0.0,0.0,0.0,0.0,0.0,1015.7528076171875,22.219999313354492,9.731494903564453,0.6151536703109741,0,0,0.0,0.0,0.0,0,False,0.0,0.0,0.0,0.0,0.0,17960,0,0,0,0,17960
0.0,0.0,0.0,0.0,0.0,0.0,1015.7528076171875,22.219999313354492,9.731494903564453,0.49212294816970825,0,0,0.0,0.0,0.0,0,False,0.0,0.0,0.0,0.0,0.0,18010,0,0,0,0,18010
0.0,0.0,0.0,0.0,0.0,0.0,1015.677734375,22.170000076293945,10.352429389953613,2.877436399459839,0,0,0.0,0.0,0.0,0,False,0.0,0.0,0.0,0.0,0.0,18060,0,0,0,0,18060
0.0,0.0,0.0,0.0,0.0,0.0,1015.677734375,22.170000076293945,10.352429389953613,2.3019492626190186,0,0,0.0,0.0,0.0,0,False,0.0,0.0,0.0,0.0,0.0,18111,0,0,0,0,18111
0.0,0.0,0.0,0.0,0.0,0.0,1015.7528076171875,22.219999313354492,9.731494903564453,-0.6421785354614258,0,0,0.0,0.0,0.0,0,False,0.0,0.0,0.0,0.0,0.0,18161,0,0,0,0,18161
0.0,0.0,0.0,0.0,0.0,0.0,1015.7528076171875,22.219999313354492,9.731494903564453,-0.5137428641319275,0,0,0.0,0.0,0.0,0,False,0.0,0.0,0.0,0.0,0.0,18211,0,0,0,0,18211
0.0,0.0,0.0,0.0,0.0,0.0,1015.8275756835938,22.270000457763672,9.110560417175293,-2.846031665802002,0,0,0.0,0.0,0.0,0,False,0.0,0.0,0.0,0.0,0.0,18262,0,0,0,0,18262
0.0,0.0,0.0,0.0,0.0,0.0,1015.8275756835938,22.270000457763672,9.110560417175293,-2.276825428009033,0,0,0.0,0.0,0.0,0,False,0.0,0.0,0.0,0.0,0.0,18312,0,0,0,0,18312
0.0,0.0,0.0,0.0,0.0,0.0,1015.7461547851562,22.209999084472656,9.784339904785156,0.8736575841903687,0,0,0.0,0.0,0.0,0,False,0.0,0.0,0.0,0.0,0.0,18362,0,0,0,0,18362
0.0,0.0,0.0,0.0,0.0,0.0,1015.7461547851562,22.209999084472656,9.784339904785156,0.6989260911941528,0,0,0.0,0.0,0.0,0,False,0.0,0.0,0.0,0.0,0.0,18412,0,0,0,0,18412
0.0,0.0,0.0,0.0,0.0,0.0,1015.6615600585938,22.15999984741211,10.48718547821045,3.37052321434021,0,0,0.0,0.0,0.0,0,False,0.0,0.0,0.0,0.0,0.0,18462,0,0,0,0,18462
0.0,0.0,0.0,0.0,0.0,0.0,1015.6615600585938,22.15999984741211,10.48718547821045,2.696418523788452,0,0,0.0,0.0,0.0,0,False,0.0,0.0,0.0,0.0,0.0,18512,0,0,0,0,18512
0.0,0.0,0.0,0.0,0.0,0.0,1015.7388916015625,22.209999084472656,9.845112800598145,-0.41115593910217285,0,0,0.0,0.0,0.0,0,False,0.0,0.0,0.0,0.0,0.0,18562,0,0,0,0,18562
0.0,0.0,0.0,0.0,0.0,0.0,1015.7388916015625,22.209999084472656,9.845112800598145,-0.3289247453212738,0,0,0.0,0.0,0.0,0,False,0.0,0.0,0.0,0.0,0.0,18612,0,0,0,0,18612
0.0,0.0,0.0,0.0,0.0,0.0,1015.813720703125,22.260000228881836,9.224178314208984,-2.746877670288086,0,0,0.0,0.0,0.0,0,False,0.0,0.0,0.0,0.0,0.0,18662,0,0,0,0,18662
0.0,0.0,0.0,0.0,0.0,0.0,1015.813720703125,22.260000228881836,9.224178314208984,-2.1975021362304688,0,0,0.0,0.0,0.0,0,False,0.0,0.0,0.0,0.0,0.0,18712,0,0,0,0,18712
0.0,0.0,0.0,0.0,0.0,0.0,1015.724365234375,22.200000762939453,9.966657638549805,1.2119156122207642,0,0,0.0,0.0,0.0,0,False,0.0,0.0,0.0,0.0,0.0,18762,0,0,0,0,18762
0.0,0.0,0.0,0.0,0.0,0.0,1015.724365234375,22.200000762939453,9.966657638549805,0.9695324897766113,0,0,0.0,0.0,0.0,0,False,0.0,0.0,0.0,0.0,0.0,18812,0,0,0,0,18812
0.0,0.0,0.0,0.0,0.0,0.0,1015.6376342773438,22.139999389648438,10.687997817993164,3.6609866619110107,0,0,0.0,0.0,0.0,0,False,0.0,0.0,0.0,0.0,0.0,18862,0,0,0,0,18862
0.0,0.0,0.0,0.0,0.0,0.0,1015.6376342773438,22.139999389648438,10.687997817993164,2.9287893772125244,0,0,0.0,0.0,0.0,0,False,0.0,0.0,0.0,0.0,0.0,18912,0,0,0,0,18912
0.0,0.0,0.0,0.0,0.0,0.0,1015.720458984375,22.200000762939453,9.998364448547363,-0.41550183296203613,0,0,0.0,0.0,0.0,0,False,0.0,0.0,0.0,0.0,0.0,18962,0,0,0,0,18962
0.0,0.0,0.0,0.0,0.0,0.0,1015.720458984375,22.200000762939453,9.998364448547363,-0.33240148425102234,0,0,0.0,0.0,0.0,0,False,0.0,0.0,0.0,0.0,0.0,19012,0,0,0,0,19012
0.0,0.0,0.0,0.0,0.0,0.0,1015.795166015625,22.25,9.377429962158203,-2.7496590614318848,0,0,0.0,0.0,0.0,0,False,0.0,0.0,0.0,0.0,0.0,19062,0,0,0,0,19062
0.0,0.0,0.0,0.0,0.0,0.0,1015.795166015625,22.25,9.377429962158203,-2.1997272968292236,0,0,0.0,0.0,0.0,0,False,0.0,0.0,0.0,0.0,0.0,19112,0,0,0,0,19112
0.0,0.0,0.0,0.0,0.0,0.0,1015.7045288085938,22.190000534057617,10.130477905273438,1.2524099349975586,0,0,0.0,0.0,0.0,0,False,0.0,0.0,0.0,0.0,0.0,19162,0,0,0,0,19162
0.0,0.0,0.0,0.0,0.0,0.0,1015.7045288085938,22.190000534057617,10.130477905273438,1.0019279718399048,0,0,0.0,0.0,0.0,0,False,0.0,0.0,0.0,0.0,0.0,19212,0,0,0,0,19212
0.0,0.0,0.0,0.0,0.0,0.0,1015.6271362304688,22.139999389648438,10.775193214416504,3.380403518676758,0,0,0.0,0.0,0.0,0,False,0.0,0.0,0.0,0.0,0.0,19262,0,0,0,0,19262
0.0,0.0,0.0,0.0,0.0,0.0,1015.6271362304688,22.139999389648438,10.775193214416504,2.7043228149414062,0,0,0.0,0.0,0.0,0,False,0.0,0.0,0.0,0.0,0.0,19312,0,0,0,0,19312
0.0,0.0,0.0,0.0,0.0,0.0,1015.6843872070312,22.18000030517578,10.296941757202148,0.6689225435256958,0,0,0.0,0.0,0.0,0,False,0.0,0.0,0.0,0.0,0.0,19376,0,0,0,0,19376
0.0,0.0,0.0,0.0,0.0,0.0,1015.6843872070312,22.18000030517578,10.296941757202148,0.5351380705833435,0,0,0.0,0.0,0.0,0,False,0.0,0.0,0.0,0.0,0.0,19426,0,0,0,0,19426
0.0,0.0,0.0,0.0,0.0,0.0,1015.7591552734375,22.219999313354492,9.678648948669434,-2.045060873031616,0,0,0.0,0.0,0.0,0,False,0.0,0.0,0.0,0.0,0.0,19476,0,0,0,0,19476
0.0,0.0,0.0,0.0,0.0,0.0,1015.7591552734375,22.219999313354492,9.678648948669434,-1.636048674583435,0,0,0.0,0.0,0.0,0,False,0.0,0.0,0.0,0.0,0.0,19526,0,0,0,0,19526
0.0,0.0,0.0,0.0,0.0,0.0,1015.6800537109375,22.170000076293945,10.333932876586914,1.312296748161316,0,0,0.0,0.0,0.0,0,False,0.0,0.0,0.0,0.0,0.0,19576,0,0,0,0,19576
0.0,0.0,0.0,0.0,0.0,0.0,1015.6800537109375,22.170000076293945,10.333932876586914,1.0498374700546265,0,0,0.0,0.0,0.0,0,False,0.0,0.0,0.0,0.0,0.0,19627,0,0,0,0,19627
0.0,0.0,0.0,0.0,0.0,0.0,1015.6093139648438,22.1299991607666,10.923160552978516,3.1967806816101074,0,0,0.0,0.0,0.0,0,False,0.0,0.0,0.0,0.0,0.0,19677,0,0,0,0,19677
0.0,0.0,0.0,0.0,0.0,0.0,1015.6093139648438,22.1299991607666,10.923160552978516,2.557424545288086,0,0,0.0,0.0,0.0,0,False,0.0,0.0,0.0,0.0,0.0,19727,0,0,0,0,19727
0.0,0.0,0.0,0.0,0.0,0.0,1015.650634765625,22.149999618530273,10.57966423034668,0.8815454244613647,0,0,0.0,0.0,0.0,0,False,0.0,0.0,0.0,0.0,0.0,19786,0,0,0,0,19786
0.0,0.0,0.0,0.0,0.0,0.0,1015.7290649414062,22.149999618530273,9.927022933959961,-1.9053287506103516,0,0,0.0,0.0,0.0,0,False,0.0,0.0,0.0,0.0,0.0,19836,0,0,0,0,19836
0.0,0.0,0.0,0.0,0.0,0.0,1015.7290649414062,22.209999084472656,9.927022933959961,-1.5242630243301392,0,0,0.0,0.0,0.0,0,False,0.0,0.0,0.0,0.0,0.0,19886,0,0,0,0,19886
0.0,0.0,0.0,0.0,0.0,0.0,1015.730712890625,22.209999084472656,9.913811683654785,-1.2722554206848145,0,0,0.0,0.0,0.0,0,False,0.0,0.0,0.0,0.0,0.0,19936,0,0,0,0,19936
0.0,0.0,0.0,0.0,0.0,0.0,1015.6542358398438,22.15999984741211,10.547957420349121,1.5187785625457764,0,0,0.0,0.0,0.0,0,False,0.0,0.0,0.0,0.0,0.0,19986,0,0,0,0,19986
0.0,0.0,0.0,0.0,0.0,0.0,1015.579833984375,22.15999984741211,11.16624927520752,3.688190460205078,0,0,0.0,0.0,0.0,0,False,0.0,0.0,0.0,0.0,0.0,20036,0,0,0,0,20036
0.0,0.0,0.0,0.0,0.0,0.0,1015.579833984375,22.110000610351562,11.16624927520752,2.950552463531494,0,0,0.0,0.0,0.0,0,False,0.0,0.0,0.0,0.0,0.0,20086,0,0,0,0,20086
0.0,0.0,0.0,0.0,0.0,0.0,1015.5560913085938,22.100000381469727,11.364419937133789,3.1531245708465576,0,0,0.0,0.0,0.0,0,False,0.0,0.0,0.0,0.0,0.0,20136,0,0,0,0,20136
0.0,0.0,0.0,0.0,0.0,0.0,1015.5560913085938,22.100000381469727,11.364419937133789,2.5224997997283936,0,0,0.0,0.0,0.0,0,False,0.0,0.0,0.0,0.0,0.0,20187,0,0,0,0,20187
0.0,0.0,0.0,0.0,0.0,0.0,1015.6414184570312,22.149999618530273,10.656291007995605,-0.8145158290863037,0,0,0.0,0.0,0.0,0,False,0.0,0.0,0.0,0.0,0.0,20237,0,0,0,0,20237
0.0,0.0,0.0,0.0,0.0,0.0,1015.6414184570312,22.149999618530273,10.656291007995605,-0.6516126990318298,0,0,0.0,0.0,0.0,0,False,0.0,0.0,0.0,0.0,0.0,20287,0,0,0,0,20287
0.0,0.0,0.0,0.0,0.0,0.0,1015.5667114257812,22.100000381469727,11.274582862854004,1.951877236366272,0,0,0.0,0.0,0.0,0,False,0.0,0.0,0.0,0.0,0.0,20337,0,0,0,0,20337
0.0,0.0,0.0,0.0,0.0,0.0,1015.5667114257812,22.100000381469727,11.274582862854004,1.5615018606185913,0,0,0.0,0.0,0.0,0,False,0.0,0.0,0.0,0.0,0.0,20396,0,0,0,0,20396
0.0,0.0,0.0,0.0,0.0,0.0,1015.4998168945312,22.059999465942383,11.83210277557373,3.479281187057495,0,0,0.0,0.0,0.0,0,False,0.0,0.0,0.0,0.0,0.0,20446,0,0,0,0,20446
0.0,0.0,0.0,0.0,0.0,0.0,1015.4998168945312,22.059999465942383,11.83210277557373,2.7834250926971436,0,0,0.0,0.0,0.0,0,False,0.0,0.0,0.0,0.0,0.0,20496,0,0,0,0,20496
0.0,0.0,0.0,0.0,0.0,0.0,1015.443603515625,22.020000457763672,12.29714298248291,4.08690071105957,0,0,0.0,0.0,0.0,0,False,0.0,0.0,0.0,0.0,0.0,20546,0,0,0,0,20546
0.0,0.0,0.0,0.0,0.0,0.0,1015.443603515625,22.020000457763672,12.29714298248291,3.2695205211639404,0,0,0.0,0.0,0.0,0,False,0.0,0.0,0.0,0.0,0.0,20596,0,0,0,0,20596
0.0,0.0,0.0,0.0,0.0,0.0,1015.5326538085938,22.079999923706055,11.557306289672852,-0.34373021125793457,0,0,0.0,0.0,0.0,0,False,0.0,0.0,0.0,0.0,0.0,20646,0,0,0,0,20646
0.0,0.0,0.0,0.0,0.0,0.0,1015.5326538085938,22.079999923706055,11.557306289672852,-0.2749841809272766,0,0,0.0,0.0,0.0,0,False,0.0,0.0,0.0,0.0,0.0,20696,0,0,0,0,20696
0.0,0.0,0.0,0.0,0.0,0.0,1015.471435546875,22.040000915527344,12.067264556884766,1.8198456764221191,0,0,0.0,0.0,0.0,0,False,0.0,0.0,0.0,0.0,0.0,20746,0,0,0,0,20746
0.0,0.0,0.0,0.0,0.0,0.0,1015.471435546875,22.040000915527344,12.067264556884766,1.4558765888214111,0,0,0.0,0.0,0.0,0,False,0.0,0.0,0.0,0.0,0.0,20796,0,0,0,0,20796
0.0,0.0,0.0,0.0,0.0,0.0,1015.4168701171875,22.010000228881836,12.51909351348877,2.972017288208008,0,0,0.0,0.0,0.0,0,False,0.0,0.0,0.0,0.0,0.0,20846,0,0,0,0,20846
0.0,0.0,0.0,0.0,0.0,0.0,1015.4168701171875,22.010000228881836,12.51909351348877,2.3776137828826904,0,0,0.0,0.0,0.0,0,False,0.0,0.0,0.0,0.0,0.0,20896,0,0,0,0,20896
0.0,0.0,0.0,0.0,0.0,0.0,1015.3668823242188,21.969999313354492,12.936573028564453,3.5720090866088867,0,0,0.0,0.0,0.0,0,False,0.0,0.0,0.0,0.0,0.0,20946,0,0,0,0,20946
0.0,0.0,0.0,0.0,0.0,0.0,1015.3668823242188,21.969999313354492,12.936573028564453,2.857607364654541,0,0,0.0,0.0,0.0,0,False,0.0,0.0,0.0,0.0,0.0,20996,0,0,0,0,20996
0.0,0.0,0.0,0.0,0.0,0.0,1015.4657592773438,22.040000915527344,12.114826202392578,-1.000901460647583,0,0,0.0,0.0,0.0,0,False,0.0,0.0,0.0,0.0,0.0,21046,0,0,0,0,21046
0.0,0.0,0.0,0.0,0.0,0.0,1015.4657592773438,22.040000915527344,12.114826202392578,-0.8007211685180664,0,0,0.0,0.0,0.0,0,False,0.0,0.0,0.0,0.0,0.0,21096,0,0,0,0,21096
0.0,0.0,0.0,0.0,0.0,0.0,1015.4234619140625,22.010000228881836,12.466248512268066,0.7651122808456421,0,0,0.0,0.0,0.0,0,False,0.0,0.0,0.0,0.0,0.0,21146,0,0,0,0,21146
0.0,0.0,0.0,0.0,0.0,0.0,1015.4234619140625,22.010000228881836,12.466248512268066,0.6120898127555847,0,0,0.0,0.0,0.0,0,False,0.0,0.0,0.0,0.0,0.0,21196,0,0,0,0,21196
0.0,0.0,0.0,0.0,0.0,0.0,1015.3945922851562,21.989999771118164,12.704052925109863,1.4408894777297974,0,0,0.0,0.0,0.0,0,False,0.0,0.0,0.0,0.0,0.0,21246,0,0,0,0,21246
0.0,0.0,0.0,0.0,0.0,0.0,1015.3945922851562,21.989999771118164,12.704052925109863,1.1527116298675537,0,0,0.0,0.0,0.0,0,False,0.0,0.0,0.0,0.0,0.0,21296,0,0,0,0,21296
0.0,0.0,0.0,0.0,0.0,0.0,1015.3621826171875,21.969999313354492,12.973565101623535,2.000217914581299,0,0,0.0,0.0,0.0,0,False,0.0,0.0,0.0,0.0,0.0,21346,0,0,0,0,21346
0.0,0.0,0.0,0.0,0.0,0.0,1015.3621826171875,21.969999313354492,12.973565101623535,1.6001743078231812,0,0,0.0,0.0,0.0,0,False,0.0,0.0,0.0,0.0,0.0,21396,0,0,0,0,21396
0.0,0.0,0.0,0.0,0.0,0.0,1015.4627075195312,22.030000686645508,12.138606071472168,-2.059696674346924,0,0,0.0,0.0,0.0,0,False,0.0,0.0,0.0,0.0,0.0,21446,0,0,0,0,21446
0.0,0.0,0.0,0.0,0.0,0.0,1015.4627075195312,22.030000686645508,12.138606071472168,-1.6477574110031128,0,0,0.0,0.0,0.0,0,False,0.0,0.0,0.0,0.0,0.0,21496,0,0,0,0,21496
0.0,0.0,0.0,0.0,0.0,0.0,1015.4201049804688,22.010000228881836,12.492671012878418,0.07028412818908691,0,0,0.0,0.0,0.0,0,False,0.0,0.0,0.0,0.0,0.0,21547,0,0,0,0,21547
0.0,0.0,0.0,0.0,0.0,0.0,1015.4201049804688,22.010000228881836,12.492671012878418,0.05622730404138565,0,0,0.0,0.0,0.0,0,False,0.0,0.0,0.0,0.0,0.0,21597,0,0,0,0,21597
0.0,0.0,0.0,0.0,0.0,0.0,1015.3817138671875,21.979999542236328,12.812386512756348,1.3238438367843628,0,0,0.0,0.0,0.0,0,False,0.0,0.0,0.0,0.0,0.0,21647,0,0,0,0,21647
0.0,0.0,0.0,0.0,0.0,0.0,1015.3817138671875,21.979999542236328,12.812386512756348,1.059075117111206,0,0,0.0,0.0,0.0,0,False,0.0,0.0,0.0,0.0,0.0,21697,0,0,0,0,21697
0.0,0.0,0.0,0.0,0.0,0.0,1015.342041015625,21.959999084472656,13.142670631408691,2.168396472930908,0,0,0.0,0.0,0.0,0,False,0.0,0.0,0.0,0.0,0.0,21747,0,0,0,0,21747
0.0,0.0,0.0,0.0,0.0,0.0,1015.342041015625,21.959999084472656,13.142670631408691,1.7347172498703003,0,0,0.0,0.0,0.0,0,False,0.0,0.0,0.0,0.0,0.0,21797,0,0,0,0,21797
0.0,0.0,0.0,0.0,0.0,0.0,1015.4412231445312,22.020000457763672,12.318281173706055,-1.909783959388733,0,0,0.0,0.0,0.0,0,False,0.0,0.0,0.0,0.0,0.0,21847,0,0,0,0,21847
0.0,0.0,0.0,0.0,0.0,0.0,1015.4412231445312,22.020000457763672,12.318281173706055,-1.5278271436691284,0,0,0.0,0.0,0.0,0,False,0.0,0.0,0.0,0.0,0.0,21897,0,0,0,0,21897
0.0,0.0,0.0,0.0,0.0,0.0,1015.3945922851562,21.989999771118164,12.704052925109863,0.3208252191543579,0,0,0.0,0.0,0.0,0,False,0.0,0.0,0.0,0.0,0.0,21947,0,0,0,0,21947
0.0,0.0,0.0,0.0,0.0,0.0,1015.3945922851562,21.989999771118164,12.704052925109863,0.25666019320487976,0,0,0.0,0.0,0.0,0,False,0.0,0.0,0.0,0.0,0.0,21997,0,0,0,0,21997
0.0,0.0,0.0,0.0,0.0,0.0,1015.3516235351562,21.959999084472656,13.060759544372559,1.6321545839309692,0,0,0.0,0.0,0.0,0,False,0.0,0.0,0.0,0.0,0.0,22047,0,0,0,0,22047
0.0,0.0,0.0,0.0,0.0,0.0,1015.3516235351562,21.959999084472656,13.060759544372559,1.3057236671447754,0,0,0.0,0.0,0.0,0,False,0.0,0.0,0.0,0.0,0.0,22097,0,0,0,0,22097
0.0,0.0,0.0,0.0,0.0,0.0,1015.3139038085938,21.940000534057617,13.375190734863281,2.3023037910461426,0,0,0.0,0.0,0.0,0,False,0.0,0.0,0.0,0.0,0.0,22147,0,0,0,0,22147
0.0,0.0,0.0,0.0,0.0,0.0,1015.3139038085938,21.940000534057617,13.375190734863281,1.8418430089950562,0,0,0.0,0.0,0.0,0,False,0.0,0.0,0.0,0.0,0.0,22197,0,0,0,0,22197
0.0,0.0,0.0,0.0,0.0,0.0,1015.412841796875,22.0,12.55344295501709,-1.8135167360305786,0,0,0.0,0.0,0.0,0,False,0.0,0.0,0.0,0.0,0.0,22247,0,0,0,0,22247
0.0,0.0,0.0,0.0,0.0,0.0,1015.412841796875,22.0,12.55344295501709,-1.4508134126663208,0,0,0.0,0.0,0.0,0,False,0.0,0.0,0.0,0.0,0.0,22297,0,0,0,0,22297
0.0,0.0,0.0,0.0,0.0,0.0,1015.3744506835938,21.979999542236328,12.87315845489502,0.11821126937866211,0,0,0.0,0.0,0.0,0,False,0.0,0.0,0.0,0.0,0.0,22347,0,0,0,0,22347
0.0,0.0,0.0,0.0,0.0,0.0,1015.3744506835938,21.979999542236328,12.87315845489502,0.09456901997327805,0,0,0.0,0.0,0.0,0,False,0.0,0.0,0.0,0.0,0.0,22397,0,0,0,0,22397
0.0,0.0,0.0,0.0,0.0,0.0,1015.33544921875,21.950000762939453,13.195515632629395,1.365083932876587,0,0,0.0,0.0,0.0,0,False,0.0,0.0,0.0,0.0,0.0,22447,0,0,0,0,22447
0.0,0.0,0.0,0.0,0.0,0.0,1015.33544921875,21.950000762939453,13.195515632629395,1.0920671224594116,0,0,0.0,0.0,0.0,0,False,0.0,0.0,0.0,0.0,0.0,22497,0,0,0,0,22497
0.0,0.0,0.0,0.0,0.0,0.0,1015.2993774414062,21.93000030517578,13.496734619140625,2.0785295963287354,0,0,0.0,0.0,0.0,0,False,0.0,0.0,0.0,0.0,0.0,22547,0,0,0,0,22547
0.0,0.0,0.0,0.0,0.0,0.0,1015.2993774414062,21.93000030517578,13.496734619140625,1.6628236770629883,0,0,0.0,0.0,0.0,0,False,0.0,0.0,0.0,0.0,0.0,22597,0,0,0,0,22597
0.0,0.0,0.0,0.0,0.0,0.0,1015.402587890625,21.989999771118164,12.637995719909668,-2.104696750640869,0,0,0.0,0.0,0.0,0,False,0.0,0.0,0.0,0.0,0.0,22647,0,0,0,0,22647
0.0,0.0,0.0,0.0,0.0,0.0,1015.402587890625,21.989999771118164,12.637995719909668,-1.6837574243545532,0,0,0.0,0.0,0.0,0,False,0.0,0.0,0.0,0.0,0.0,22697,0,0,0,0,22697
0.0,0.0,0.0,0.0,0.0,0.0,1015.365478515625,21.969999313354492,12.947141647338867,-0.11042225360870361,0,0,0.0,0.0,0.0,0,False,0.0,0.0,0.0,0.0,0.0,22747,0,0,0,0,22747
0.0,0.0,0.0,0.0,0.0,0.0,1015.365478515625,21.969999313354492,12.947141647338867,-0.08833780139684677,0,0,0.0,0.0,0.0,0,False,0.0,0.0,0.0,0.0,0.0,22797,0,0,0,0,22797
0.0,0.0,0.0,0.0,0.0,0.0,1015.3311157226562,21.950000762939453,13.232507705688477,1.0707939863204956,0,0,0.0,0.0,0.0,0,False,0.0,0.0,0.0,0.0,0.0,22847,0,0,0,0,22847
0.0,0.0,0.0,0.0,0.0,0.0,1015.3311157226562,21.950000762939453,13.232507705688477,0.8566352128982544,0,0,0.0,0.0,0.0,0,False,0.0,0.0,0.0,0.0,0.0,22897,0,0,0,0,22897
0.0,0.0,0.0,0.0,0.0,0.0,1015.2970581054688,21.93000030517578,13.515231132507324,1.81620192527771,0,0,0.0,0.0,0.0,0,False,0.0,0.0,0.0,0.0,0.0,22947,0,0,0,0,22947
0.0,0.0,0.0,0.0,0.0,0.0,1015.2970581054688,21.93000030517578,13.515231132507324,1.4529615640640259,0,0,0.0,0.0,0.0,0,False,0.0,0.0,0.0,0.0,0.0,22998,0,0,0,0,22998
0.0,0.0,0.0,0.0,0.0,0.0,1015.396240234375,21.989999771118164,12.690841674804688,-2.135188579559326,0,0,0.0,0.0,0.0,0,False,0.0,0.0,0.0,0.0,0.0,23048,0,0,0,0,23048
0.0,0.0,0.0,0.0,0.0,0.0,1015.396240234375,21.989999771118164,12.690841674804688,-1.708150863647461,0,0,0.0,0.0,0.0,0,False,0.0,0.0,0.0,0.0,0.0,23098,0,0,0,0,23098
0.0,0.0,0.0,0.0,0.0,0.0,1015.3630981445312,21.969999313354492,12.965638160705566,-0.26733481884002686,0,0,0.0,0.0,0.0,0,False,0.0,0.0,0.0,0.0,0.0,23148,0,0,0,0,23148
0.0,0.0,0.0,0.0,0.0,0.0,1015.3630981445312,21.969999313354492,12.965638160705566,-0.21386785805225372,0,0,0.0,0.0,0.0,0,False,0.0,0.0,0.0,0.0,0.0,23198,0,0,0,0,23198
0.0,0.0,0.0,0.0,0.0,0.0,1015.3287353515625,21.940000534057617,13.25100326538086,0.9703661203384399,0,0,0.0,0.0,0.0,0,False,0.0,0.0,0.0,0.0,0.0,23248,0,0,0,0,23248
0.0,0.0,0.0,0.0,0.0,0.0,1015.3287353515625,21.940000534057617,13.25100326538086,0.7762929201126099,0,0,0.0,0.0,0.0,0,False,0.0,0.0,0.0,0.0,0.0,23298,0,0,0,0,23298
0.0,0.0,0.0,0.0,0.0,0.0,1015.2963256835938,21.920000076293945,13.520515441894531,1.6990830898284912,0,0,0.0,0.0,0.0,0,False,0.0,0.0,0.0,0.0,0.0,23348,0,0,0,0,23348
0.0,0.0,0.0,0.0,0.0,0.0,1016.8824462890625,22.639999389648438,-0.07398366928100586,0.0,0,0,0.0,0.0,0.0,0,False,0.0,0.0,0.0,0.0,0.0,3369,0,0,0,0,3369
0.0,0.0,0.0,0.0,0.0,0.0,1016.8824462890625,22.639999389648438,-0.07398366928100586,0.0,0,0,0.0,0.0,0.0,0,False,0.0,0.0,0.0,0.0,0.0,3419,0,0,0,0,3419
0.0,0.0,0.0,0.0,0.0,0.0,1016.8856811523438,22.639999389648438,-0.10040640830993652,-0.10569095611572266,0,0,0.0,0.0,0.0,0,False,0.0,0.0,0.0,0.0,0.0,3469,0,0,0,0,3469
0.0,0.0,0.0,0.0,0.0,0.0,1016.8856811523438,22.639999389648438,-0.10040640830993652,-0.08455276489257812,0,0,0.0,0.0,0.0,0,False,0.0,0.0,0.0,0.0,0.0,3519,0,0,0,0,3519
0.0,0.0,0.0,0.0,0.0,0.0,1016.7681274414062,22.559999465942383,0.877234935760498,3.8429229259490967,0,0,0.0,0.0,0.0,0,False,0.0,0.0,0.0,0.0,0.0,3569,0,0,0,0,3569
0.0,0.0,0.0,0.0,0.0,0.0,1016.7681274414062,22.559999465942383,0.877234935760498,3.074338436126709,0,0,0.0,0.0,0.0,0,False,0.0,0.0,0.0,0.0,0.0,3619,0,0,0,0,3619
0.0,0.0,0.0,0.0,0.0,0.0,1016.6572875976562,22.489999771118164,1.7967462539672852,6.0653977394104,0,0,0.0,0.0,0.0,0,False,0.0,0.0,0.0,0.0,0.0,3670,0,0,0,0,3670
0.0,0.0,0.0,0.0,0.0,0.0,1016.6572875976562,22.489999771118164,1.7967462539672852,4.852318286895752,0,0,0.0,0.0,0.0,0,False,0.0,0.0,0.0,0.0,0.0,3720,0,0,0,0,3720
0.0,0.0,0.0,0.0,0.0,0.0,1016.669189453125,22.489999771118164,1.6963398456573486,3.541494131088257,0,0,0.0,0.0,0.0,0,False,0.0,0.0,0.0,0.0,0.0,3779,0,0,0,0,3779
0.0,0.0,0.0,0.0,0.0,0.0,1016.669189453125,22.489999771118164,1.6963398456573486,2.833195447921753,0,0,0.0,0.0,0.0,0,False,0.0,0.0,0.0,0.0,0.0,3829,0,0,0,0,3829
0.0,0.0,0.0,0.0,0.0,0.0,1016.68701171875,22.5,1.548372507095337,1.674687147140503,0,0,0.0,0.0,0.0,0,False,0.0,0.0,0.0,0.0,0.0,3879,0,0,0,0,3879
0.0,0.0,0.0,0.0,0.0,0.0,1016.68701171875,22.5,1.548372507095337,1.3397496938705444,0,0,0.0,0.0,0.0,0,False,0.0,0.0,0.0,0.0,0.0,3929,0,0,0,0,3929
0.0,0.0,0.0,0.0,0.0,0.0,1016.5797729492188,22.43000030517578,2.43881893157959,4.633584976196289,0,0,0.0,0.0,0.0,0,False,0.0,0.0,0.0,0.0,0.0,3979,0,0,0,0,3979
0.0,0.0,0.0,0.0,0.0,0.0,1016.5797729492188,22.43000030517578,2.43881893157959,3.7068679332733154,0,0,0.0,0.0,0.0,0,False,0.0,0.0,0.0,0.0,0.0,4029,0,0,0,0,4029
0.0,0.0,0.0,0.0,0.0,0.0,1016.4807739257812,22.3700008392334,3.260565996170044,6.2524824142456055,0,0,0.0,0.0,0.0,0,False,0.0,0.0,0.0,0.0,0.0,4079,0,0,0,0,4079
0.0,0.0,0.0,0.0,0.0,0.0,1016.4807739257812,22.3700008392334,3.260565996170044,5.001986026763916,0,0,0.0,0.0,0.0,0,False,0.0,0.0,0.0,0.0,0.0,4129,0,0,0,0,4129
0.0,0.0,0.0,0.0,0.0,0.0,1016.5036010742188,22.389999389648438,3.070322275161743,3.2406139373779297,0,0,0.0,0.0,0.0,0,False,0.0,0.0,0.0,0.0,0.0,4179,0,0,0,0,4179
0.0,0.0,0.0,0.0,0.0,0.0,1016.5036010742188,22.389999389648438,3.070322275161743,2.5924911499023438,0,0,0.0,0.0,0.0,0,False,0.0,0.0,0.0,0.0,0.0,4229,0,0,0,0,4229
0.0,0.0,0.0,0.0,0.0,0.0,1016.531494140625,22.399999618530273,2.840444564819336,1.154482126235962,0,0,0.0,0.0,0.0,0,False,0.0,0.0,0.0,0.0,0.0,4279,0,0,0,0,4279
0.0,0.0,0.0,0.0,0.0,0.0,1016.531494140625,22.399999618530273,2.840444564819336,0.9235857129096985,0,0,0.0,0.0,0.0,0,False,0.0,0.0,0.0,0.0,0.0,4329,0,0,0,0,4329
0.0,0.0,0.0,0.0,0.0,0.0,1016.4308471679688,22.34000015258789,3.675403118133545,3.5692367553710938,0,0,0.0,0.0,0.0,0,False,0.0,0.0,0.0,0.0,0.0,4388,0,0,0,0,4388
0.0,0.0,0.0,0.0,0.0,0.0,1016.4308471679688,22.34000015258789,3.675403118133545,2.855389356613159,0,0,0.0,0.0,0.0,0,False,0.0,0.0,0.0,0.0,0.0,4438,0,0,0,0,4438
0.0,0.0,0.0,0.0,0.0,0.0,1016.3421630859375,22.280000686645508,4.41259765625,5.233089447021484,0,0,0.0,0.0,0.0,0,False,0.0,0.0,0.0,0.0,0.0,4488,0,0,0,0,4488
0.0,0.0,0.0,0.0,0.0,0.0,1016.3421630859375,22.280000686645508,4.41259765625,4.186471462249756,0,0,0.0,0.0,0.0,0,False,0.0,0.0,0.0,0.0,0.0,4538,0,0,0,0,4538
0.0,0.0,0.0,0.0,0.0,0.0,1016.37451171875,22.299999237060547,4.143085479736328,2.2711284160614014,0,0,0.0,0.0,0.0,0,False,0.0,0.0,0.0,0.0,0.0,4588,0,0,0,0,4588
0.0,0.0,0.0,0.0,0.0,0.0,1016.37451171875,22.299999237060547,4.143085479736328,1.816902756690979,0,0,0.0,0.0,0.0,0,False,0.0,0.0,0.0,0.0,0.0,4638,0,0,0,0,4638
0.0,0.0,0.0,0.0,0.0,0.0,1016.41064453125,22.329999923706055,3.8418662548065186,0.24864530563354492,0,0,0.0,0.0,0.0,0,False,0.0,0.0,0.0,0.0,0.0,4688,0,0,0,0,4688
0.0,0.0,0.0,0.0,0.0,0.0,1016.41064453125,22.329999923706055,3.8418662548065186,0.1989162415266037,0,0,0.0,0.0,0.0,0,False,0.0,0.0,0.0,0.0,0.0,4738,0,0,0,0,4738
0.0,0.0,0.0,0.0,0.0,0.0,1016.316650390625,22.270000457763672,4.623979568481445,3.287586212158203,0,0,0.0,0.0,0.0,0,False,0.0,0.0,0.0,0.0,0.0,4788,0,0,0,0,4788
0.0,0.0,0.0,0.0,0.0,0.0,1016.316650390625,22.270000457763672,4.623979568481445,2.6300690174102783,0,0,0.0,0.0,0.0,0,False,0.0,0.0,0.0,0.0,0.0,4838,0,0,0,0,4838
0.0,0.0,0.0,0.0,0.0,0.0,1016.2335815429688,22.209999084472656,5.313612937927246,4.862588882446289,0,0,0.0,0.0,0.0,0,False,0.0,0.0,0.0,0.0,0.0,4888,0,0,0,0,4888
0.0,0.0,0.0,0.0,0.0,0.0,1016.2335815429688,22.209999084472656,5.313612937927246,3.890071153640747,0,0,0.0,0.0,0.0,0,False,0.0,0.0,0.0,0.0,0.0,4938,0,0,0,0,4938
0.0,0.0,0.0,0.0,0.0,0.0,1016.2736206054688,22.239999771118164,4.980686187744141,1.7803499698638916,0,0,0.0,0.0,0.0,0,False,0.0,0.0,0.0,0.0,0.0,4988,0,0,0,0,4988
0.0,0.0,0.0,0.0,0.0,0.0,1016.2736206054688,22.239999771118164,4.980686187744141,1.424280047416687,0,0,0.0,0.0,0.0,0,False,0.0,0.0,0.0,0.0,0.0,5038,0,0,0,0,5038
0.0,0.0,0.0,0.0,0.0,0.0,1016.31591796875,22.270000457763672,4.629263877868652,-0.2662651538848877,0,0,0.0,0.0,0.0,0,False,0.0,0.0,0.0,0.0,0.0,5088,0,0,0,0,5088
0.0,0.0,0.0,0.0,0.0,0.0,1016.31591796875,22.270000457763672,4.629263877868652,-0.21301212906837463,0,0,0.0,0.0,0.0,0,False,0.0,0.0,0.0,0.0,0.0,5138,0,0,0,0,5138
0.0,0.0,0.0,0.0,0.0,0.0,1016.23291015625,22.209999084472656,5.318897247314453,2.5881237983703613,0,0,0.0,0.0,0.0,0,False,0.0,0.0,0.0,0.0,0.0,5188,0,0,0,0,5188
0.0,0.0,0.0,0.0,0.0,0.0,1016.23291015625,22.209999084472656,5.318897247314453,2.0704991817474365,0,0,0.0,0.0,0.0,0,False,0.0,0.0,0.0,0.0,0.0,5238,0,0,0,0,5238
0.0,0.0,0.0,0.0,0.0,0.0,1016.1578369140625,22.15999984741211,5.942473888397217,4.150705814361572,0,0,0.0,0.0,0.0,0,False,0.0,0.0,0.0,0.0,0.0,5288,0,0,0,0,5288
0.0,0.0,0.0,0.0,0.0,0.0,1016.1578369140625,22.15999984741211,5.942473888397217,3.3205647468566895,0,0,0.0,0.0,0.0,0,False,0.0,0.0,0.0,0.0,0.0,5338,0,0,0,0,5338
0.0,0.0,0.0,0.0,0.0,0.0,1016.2044677734375,22.190000534057617,5.554059982299805,1.1332601308822632,0,0,0.0,0.0,0.0,0,False,0.0,0.0,0.0,0.0,0.0,5389,0,0,0,0,5389
0.0,0.0,0.0,0.0,0.0,0.0,1016.2044677734375,22.190000534057617,5.554059982299805,0.9066081047058105,0,0,0.0,0.0,0.0,0,False,0.0,0.0,0.0,0.0,0.0,5439,0,0,0,0,5439
0.0,0.0,0.0,0.0,0.0,0.0,1016.2451782226562,22.219999313354492,5.215848922729492,-0.6275577545166016,0,0,0.0,0.0,0.0,0,False,0.0,0.0,0.0,0.0,0.0,5489,0,0,0,0,5489
0.0,0.0,0.0,0.0,0.0,0.0,1016.2451782226562,22.219999313354492,5.215848922729492,-0.5020462274551392,0,0,0.0,0.0,0.0,0,False,0.0,0.0,0.0,0.0,0.0,5539,0,0,0,0,5539
0.0,0.0,0.0,0.0,0.0,0.0,1016.1660766601562,22.170000076293945,5.873775005340576,2.1784653663635254,0,0,0.0,0.0,0.0,0,False,0.0,0.0,0.0,0.0,0.0,5590,0,0,0,0,5590
0.0,0.0,0.0,0.0,0.0,0.0,1016.1660766601562,22.170000076293945,5.873775005340576,1.7427723407745361,0,0,0.0,0.0,0.0,0,False,0.0,0.0,0.0,0.0,0.0,5640,0,0,0,0,5640
0.0,0.0,0.0,0.0,0.0,0.0,1016.0951538085938,22.1200008392334,6.460359573364258,3.740556240081787,0,0,0.0,0.0,0.0,0,False,0.0,0.0,0.0,0.0,0.0,5690,0,0,0,0,5690
0.0,0.0,0.0,0.0,0.0,0.0,1016.0951538085938,22.1200008392334,6.460359573364258,2.9924449920654297,0,0,0.0,0.0,0.0,0,False,0.0,0.0,0.0,0.0,0.0,5740,0,0,0,0,5740
0.0,0.0,0.0,0.0,0.0,0.0,1016.1434936523438,22.149999618530273,6.061376571655273,0.7980239391326904,0,0,0.0,0.0,0.0,0,False,0.0,0.0,0.0,0.0,0.0,5790,0,0,0,0,5790
0.0,0.0,0.0,0.0,0.0,0.0,1016.1434936523438,22.149999618530273,6.061376571655273,0.6384191513061523,0,0,0.0,0.0,0.0,0,False,0.0,0.0,0.0,0.0,0.0,5840,0,0,0,0,5840
0.0,0.0,0.0,0.0,0.0,0.0,1016.19189453125,22.18000030517578,5.659750938415527,-1.0957672595977783,0,0,0.0,0.0,0.0,0,False,0.0,0.0,0.0,0.0,0.0,5890,0,0,0,0,5890
0.0,0.0,0.0,0.0,0.0,0.0,1016.19189453125,22.18000030517578,5.659750938415527,-0.8766137957572937,0,0,0.0,0.0,0.0,0,False,0.0,0.0,0.0,0.0,0.0,5940,0,0,0,0,5940
0.0,0.0,0.0,0.0,0.0,0.0,1016.1152954101562,22.1299991607666,6.293896675109863,1.835291862487793,0,0,0.0,0.0,0.0,0,False,0.0,0.0,0.0,0.0,0.0,5990,0,0,0,0,5990
0.0,0.0,0.0,0.0,0.0,0.0,1016.1152954101562,22.1299991607666,6.293896675109863,1.4682334661483765,0,0,0.0,0.0,0.0,0,False,0.0,0.0,0.0,0.0,0.0,6040,0,0,0,0,6040
0.0,0.0,0.0,0.0,0.0,0.0,1016.0462646484375,22.09000015258789,6.867269992828369,3.4680800437927246,0,0,0.0,0.0,0.0,0,False,0.0,0.0,0.0,0.0,0.0,6090,0,0,0,0,6090
0.0,0.0,0.0,0.0,0.0,0.0,1016.0462646484375,22.09000015258789,6.867269992828369,2.7744641304016113,0,0,0.0,0.0,0.0,0,False,0.0,0.0,0.0,0.0,0.0,6140,0,0,0,0,6140
0.0,0.0,0.0,0.0,0.0,0.0,1016.1007690429688,22.1200008392334,6.415441036224365,0.41225552558898926,0,0,0.0,0.0,0.0,0,False,0.0,0.0,0.0,0.0,0.0,6190,0,0,0,0,6190
0.0,0.0,0.0,0.0,0.0,0.0,1016.1007690429688,22.1200008392334,6.415441036224365,0.3298044204711914,0,0,0.0,0.0,0.0,0,False,0.0,0.0,0.0,0.0,0.0,6240,0,0,0,0,6240
0.0,0.0,0.0,0.0,0.0,0.0,1016.1478271484375,22.149999618530273,6.024384498596191,-1.3003826141357422,0,0,0.0,0.0,0.0,0,False,0.0,0.0,0.0,0.0,0.0,6290,0,0,0,0,6290
0.0,0.0,0.0,0.0,0.0,0.0,1016.1478271484375,22.149999618530273,6.024384498596191,-1.0403060913085938,0,0,0.0,0.0,0.0,0,False,0.0,0.0,0.0,0.0,0.0,6340,0,0,0,0,6340
0.0,0.0,0.0,0.0,0.0,0.0,1016.0753173828125,22.110000610351562,6.6268229484558105,1.5775089263916016,0,0,0.0,0.0,0.0,0,False,0.0,0.0,0.0,0.0,0.0,6390,0,0,0,0,6390
0.0,0.0,0.0,0.0,0.0,0.0,1016.0753173828125,22.110000610351562,6.6268229484558105,1.2620071172714233,0,0,0.0,0.0,0.0,0,False,0.0,0.0,0.0,0.0,0.0,6440,0,0,0,0,6440
0.0,0.0,0.0,0.0,0.0,0.0,1016.0084228515625,22.059999465942383,7.181700706481934,3.229116916656494,0,0,0.0,0.0,0.0,0,False,0.0,0.0,0.0,0.0,0.0,6490,0,0,0,0,6490
0.0,0.0,0.0,0.0,0.0,0.0,1016.0084228515625,22.059999465942383,7.181700706481934,2.5832936763763428,0,0,0.0,0.0,0.0,0,False,0.0,0.0,0.0,0.0,0.0,6540,0,0,0,0,6540
0.0,0.0,0.0,0.0,0.0,0.0,1016.0670166015625,22.100000381469727,6.695522308349609,0.12192130088806152,0,0,0.0,0.0,0.0,0,False,0.0,0.0,0.0,0.0,0.0,6590,0,0,0,0,6590
0.0,0.0,0.0,0.0,0.0,0.0,1016.0670166015625,22.100000381469727,6.695522308349609,0.09753704071044922,0,0,0.0,0.0,0.0,0,False,0.0,0.0,0.0,0.0,0.0,6640,0,0,0,0,6640
0.0,0.0,0.0,0.0,0.0,0.0,1016.11767578125,22.139999389648438,6.275400638580322,-1.602457046508789,0,0,0.0,0.0,0.0,0,False,0.0,0.0,0.0,0.0,0.0,6690,0,0,0,0,6690
0.0,0.0,0.0,0.0,0.0,0.0,1016.11767578125,22.139999389648438,6.275400638580322,-1.2819656133651733,0,0,0.0,0.0,0.0,0,False,0.0,0.0,0.0,0.0,0.0,6740,0,0,0,0,6740
0.0,0.0,0.0,0.0,0.0,0.0,1016.0485229492188,22.09000015258789,6.848773956298828,1.267920732498169,0,0,0.0,0.0,0.0,0,False,0.0,0.0,0.0,0.0,0.0,6790,0,0,0,0,6790
0.0,0.0,0.0,0.0,0.0,0.0,1016.0485229492188,22.09000015258789,6.848773956298828,1.0143365859985352,0,0,0.0,0.0,0.0,0,False,0.0,0.0,0.0,0.0,0.0,6840,0,0,0,0,6840
0.0,0.0,0.0,0.0,0.0,0.0,1015.9816284179688,22.049999237060547,7.403651237487793,3.0309784412384033,0,0,0.0,0.0,0.0,0,False,0.0,0.0,0.0,0.0,0.0,6890,0,0,0,0,6890
0.0,0.0,0.0,0.0,0.0,0.0,1015.9816284179688,22.049999237060547,7.403651237487793,2.4247827529907227,0,0,0.0,0.0,0.0,0,False,0.0,0.0,0.0,0.0,0.0,6940,0,0,0,0,6940
0.0,0.0,0.0,0.0,0.0,0.0,1016.040283203125,22.079999923706055,6.917472839355469,-0.00488734245300293,0,0,0.0,0.0,0.0,0,False,0.0,0.0,0.0,0.0,0.0,6990,0,0,0,0,6990
0.0,0.0,0.0,0.0,0.0,0.0,1016.040283203125,22.079999923706055,6.917472839355469,-0.003909874241799116,0,0,0.0,0.0,0.0,0,False,0.0,0.0,0.0,0.0,0.0,7040,0,0,0,0,7040
0.0,0.0,0.0,0.0,0.0,0.0,1016.0909423828125,22.1200008392334,6.49735164642334,-1.6836127042770386,0,0,0.0,0.0,0.0,0,False,0.0,0.0,0.0,0.0,0.0,7090,0,0,0,0,7090
0.0,0.0,0.0,0.0,0.0,0.0,1016.0909423828125,22.1200008392334,6.49735164642334,-1.3468902111053467,0,0,0.0,0.0,0.0,0,False,0.0,0.0,0.0,0.0,0.0,7140,0,0,0,0,7140
0.0,0.0,0.0,0.0,0.0,0.0,1016.0240478515625,22.06999969482422,7.052228927612305,1.14199697971344,0,0,0.0,0.0,0.0,0,False,0.0,0.0,0.0,0.0,0.0,7190,0,0,0,0,7190
0.0,0.0,0.0,0.0,0.0,0.0,1016.0240478515625,22.06999969482422,7.052228927612305,0.913597583770752,0,0,0.0,0.0,0.0,0,False,0.0,0.0,0.0,0.0,0.0,7240,0,0,0,0,7240
0.0,0.0,0.0,0.0,0.0,0.0,1015.9614868164062,22.030000686645508,7.572756767272949,2.8129894733428955,0,0,0.0,0.0,0.0,0,False,0.0,0.0,0.0,0.0,0.0,7290,0,0,0,0,7290
0.0,0.0,0.0,0.0,0.0,0.0,1015.9614868164062,22.030000686645508,7.572756767272949,2.250391721725464,0,0,0.0,0.0,0.0,0,False,0.0,0.0,0.0,0.0,0.0,7340,0,0,0,0,7340
0.0,0.0,0.0,0.0,0.0,0.0,1016.0164184570312,22.06999969482422,7.115643501281738,-0.028139710426330566,0,0,0.0,0.0,0.0,0,False,0.0,0.0,0.0,0.0,0.0,7390,0,0,0,0,7390
0.0,0.0,0.0,0.0,0.0,0.0,1016.0164184570312,22.06999969482422,7.115643501281738,-0.022511769086122513,0,0,0.0,0.0,0.0,0,False,0.0,0.0,0.0,0.0,0.0,7440,0,0,0,0,7440
0.0,0.0,0.0,0.0,0.0,0.0,1016.071044921875,22.110000610351562,6.661172389984131,-1.8358938694000244,0,0,0.0,0.0,0.0,0,False,0.0,0.0,0.0,0.0,0.0,7490,0,0,0,0,7490
0.0,0.0,0.0,0.0,0.0,0.0,1016.071044921875,22.110000610351562,6.661172389984131,-1.4687150716781616,0,0,0.0,0.0,0.0,0,False,0.0,0.0,0.0,0.0,0.0,7540,0,0,0,0,7540
0.0,0.0,0.0,0.0,0.0,0.0,1016.0042114257812,22.059999465942383,7.216050148010254,1.044538974761963,0,0,0.0,0.0,0.0,0,False,0.0,0.0,0.0,0.0,0.0,7590,0,0,0,0,7590
0.0,0.0,0.0,0.0,0.0,0.0,1016.0042114257812,22.059999465942383,7.216050148010254,0.8356311917304993,0,0,0.0,0.0,0.0,0,False,0.0,0.0,0.0,0.0,0.0,7640,0,0,0,0,7640
0.0,0.0,0.0,0.0,0.0,0.0,1015.9400024414062,22.020000457763672,7.749789237976074,2.8034613132476807,0,0,0.0,0.0,0.0,0,False,0.0,0.0,0.0,0.0,0.0,7690,0,0,0,0,7690
0.0,0.0,0.0,0.0,0.0,0.0,1015.9400024414062,22.020000457763672,7.749789237976074,2.2427690029144287,0,0,0.0,0.0,0.0,0,False,0.0,0.0,0.0,0.0,0.0,7740,0,0,0,0,7740
0.0,0.0,0.0,0.0,0.0,0.0,1015.9985961914062,22.059999465942383,7.26361083984375,-0.1504983901977539,0,0,0.0,0.0,0.0,0,False,0.0,0.0,0.0,0.0,0.0,7790,0,0,0,0,7790
0.0,0.0,0.0,0.0,0.0,0.0,1015.9985961914062,22.059999465942383,7.26361083984375,-0.12039871513843536,0,0,0.0,0.0,0.0,0,False,0.0,0.0,0.0,0.0,0.0,7840,0,0,0,0,7840
0.0,0.0,0.0,0.0,0.0,0.0,1016.0591430664062,22.100000381469727,6.7615790367126465,-2.1044461727142334,0,0,0.0,0.0,0.0,0,False,0.0,0.0,0.0,0.0,0.0,7890,0,0,0,0,7890
0.0,0.0,0.0,0.0,0.0,0.0,1016.0591430664062,22.100000381469727,6.7615790367126465,-1.6835569143295288,0,0,0.0,0.0,0.0,0,False,0.0,0.0,0.0,0.0,0.0,7940,0,0,0,0,7940
0.0,0.0,0.0,0.0,0.0,0.0,1015.9879760742188,22.049999237060547,7.35080623626709,1.0100632905960083,0,0,0.0,0.0,0.0,0,False,0.0,0.0,0.0,0.0,0.0,7990,0,0,0,0,7990
0.0,0.0,0.0,0.0,0.0,0.0,1015.9879760742188,22.049999237060547,7.35080623626709,0.8080506324768066,0,0,0.0,0.0,0.0,0,False,0.0,0.0,0.0,0.0,0.0,8040,0,0,0,0,8040
0.0,0.0,0.0,0.0,0.0,0.0,1015.9237670898438,22.010000228881836,7.88454532623291,2.7813968658447266,0,0,0.0,0.0,0.0,0,False,0.0,0.0,0.0,0.0,0.0,8090,0,0,0,0,8090
0.0,0.0,0.0,0.0,0.0,0.0,1015.9237670898438,22.010000228881836,7.88454532623291,2.2251174449920654,0,0,0.0,0.0,0.0,0,False,0.0,0.0,0.0,0.0,0.0,8140,0,0,0,0,8140
0.0,0.0,0.0,0.0,0.0,0.0,1015.9807739257812,22.049999237060547,7.411578178405762,-0.11177456378936768,0,0,0.0,0.0,0.0,0,False,0.0,0.0,0.0,0.0,0.0,8190,0,0,0,0,8190
0.0,0.0,0.0,0.0,0.0,0.0,1015.9807739257812,22.049999237060547,7.411578178405762,-0.0894196555018425,0,0,0.0,0.0,0.0,0,False,0.0,0.0,0.0,0.0,0.0,8240,0,0,0,0,8240
0.0,0.0,0.0,0.0,0.0,0.0,1016.0396118164062,22.09000015258789,6.922757625579834,-2.026818037033081,0,0,0.0,0.0,0.0,0,False,0.0,0.0,0.0,0.0,0.0,8290,0,0,0,0,8290
0.0,0.0,0.0,0.0,0.0,0.0,1016.0396118164062,22.09000015258789,6.922757625579834,-1.6214544773101807,0,0,0.0,0.0,0.0,0,False,0.0,0.0,0.0,0.0,0.0,8340,0,0,0,0,8340
0.0,0.0,0.0,0.0,0.0,0.0,1015.9728393554688,22.040000915527344,7.477635383605957,0.9223474264144897,0,0,0.0,0.0,0.0,0,False,0.0,0.0,0.0,0.0,0.0,8390,0,0,0,0,8390
0.0,0.0,0.0,0.0,0.0,0.0,1015.9728393554688,22.040000915527344,7.477635383605957,0.7378779649734497,0,0,0.0,0.0,0.0,0,False,0.0,0.0,0.0,0.0,0.0,8440,0,0,0,0,8440
0.0,0.0,0.0,0.0,0.0,0.0,1015.9082641601562,22.0,8.014017105102539,2.693760395050049,0,0,0.0,0.0,0.0,0,False,0.0,0.0,0.0,0.0,0.0,8491,0,0,0,0,8491
0.0,0.0,0.0,0.0,0.0,0.0,1015.9082641601562,22.0,8.014017105102539,2.155008316040039,0,0,0.0,0.0,0.0,0,False,0.0,0.0,0.0,0.0,0.0,8541,0,0,0,0,8541
0.0,0.0,0.0,0.0,0.0,0.0,1015.9710693359375,22.040000915527344,7.490846633911133,-0.36867523193359375,0,0,0.0,0.0,0.0,0,False,0.0,0.0,0.0,0.0,0.0,8591,0,0,0,0,8591
0.0,0.0,0.0,0.0,0.0,0.0,1015.9710693359375,22.040000915527344,7.490846633911133,-0.29494020342826843,0,0,0.0,0.0,0.0,0,False,0.0,0.0,0.0,0.0,0.0,8641,0,0,0,0,8641
0.0,0.0,0.0,0.0,0.0,0.0,1016.0257568359375,22.079999923706055,7.039017677307129,-2.0432679653167725,0,0,0.0,0.0,0.0,0,False,0.0,0.0,0.0,0.0,0.0,8691,0,0,0,0,8691
0.0,0.0,0.0,0.0,0.0,0.0,1016.0257568359375,22.079999923706055,7.039017677307129,-1.63461434841156,0,0,0.0,0.0,0.0,0,False,0.0,0.0,0.0,0.0,0.0,8741,0,0,0,0,8741
0.0,0.0,0.0,0.0,0.0,0.0,1015.957275390625,22.040000915527344,7.607106685638428,0.9646645784378052,0,0,0.0,0.0,0.0,0,False,0.0,0.0,0.0,0.0,0.0,8791,0,0,0,0,8791
0.0,0.0,0.0,0.0,0.0,0.0,1015.957275390625,22.040000915527344,7.607106685638428,0.7717316746711731,0,0,0.0,0.0,0.0,0,False,0.0,0.0,0.0,0.0,0.0,8841,0,0,0,0,8841
0.0,0.0,0.0,0.0,0.0,0.0,1015.8947143554688,21.989999771118164,8.124992370605469,2.6889281272888184,0,0,0.0,0.0,0.0,0,False,0.0,0.0,0.0,0.0,0.0,8891,0,0,0,0,8891
0.0,0.0,0.0,0.0,0.0,0.0,1015.8931274414062,21.989999771118164,8.138203620910645,2.2039875984191895,0,0,0.0,0.0,0.0,0,False,0.0,0.0,0.0,0.0,0.0,8941,0,0,0,0,8941
0.0,0.0,0.0,0.0,0.0,0.0,1015.957275390625,22.040000915527344,7.607106685638428,-0.3611975908279419,0,0,0.0,0.0,0.0,0,False,0.0,0.0,0.0,0.0,0.0,8991,0,0,0,0,8991
0.0,0.0,0.0,0.0,0.0,0.0,1016.015869140625,22.040000915527344,7.1209282875061035,-2.2336716651916504,0,0,0.0,0.0,0.0,0,False,0.0,0.0,0.0,0.0,0.0,9041,0,0,0,0,9041
0.0,0.0,0.0,0.0,0.0,0.0,1016.015869140625,22.06999969482422,7.1209282875061035,-1.7869373559951782,0,0,0.0,0.0,0.0,0,False,0.0,0.0,0.0,0.0,0.0,9091,0,0,0,0,9091
0.0,0.0,0.0,0.0,0.0,0.0,1016.015869140625,22.06999969482422,7.1209282875061035,-1.4295499324798584,0,0,0.0,0.0,0.0,0,False,0.0,0.0,0.0,0.0,0.0,9141,0,0,0,0,9141
0.0,0.0,0.0,0.0,0.0,0.0,1015.95166015625,22.030000686645508,7.65202522277832,0.9807478189468384,0,0,0.0,0.0,0.0,0,False,0.0,0.0,0.0,0.0,0.0,9191,0,0,0,0,9191
0.0,0.0,0.0,0.0,0.0,0.0,1015.887451171875,22.030000686645508,8.18576431274414,2.9195547103881836,0,0,0.0,0.0,0.0,0,False,0.0,0.0,0.0,0.0,0.0,9241,0,0,0,0,9241
0.0,0.0,0.0,0.0,0.0,0.0,1015.887451171875,21.989999771118164,8.18576431274414,2.335643768310547,0,0,0.0,0.0,0.0,0,False,0.0,0.0,0.0,0.0,0.0,9291,0,0,0,0,9291
0.0,0.0,0.0,0.0,0.0,0.0,1015.9500122070312,22.030000686645508,7.667879104614258,-0.20302581787109375,0,0,0.0,0.0,0.0,0,False,0.0,0.0,0.0,0.0,0.0,9341,0,0,0,0,9341
0.0,0.0,0.0,0.0,0.0,0.0,1015.9500122070312,22.030000686645508,7.667879104614258,-0.16242066025733948,0,0,0.0,0.0,0.0,0,False,0.0,0.0,0.0,0.0,0.0,9391,0,0,0,0,9391
0.0,0.0,0.0,0.0,0.0,0.0,1016.0089111328125,22.06999969482422,7.176415920257568,-2.0957891941070557,0,0,0.0,0.0,0.0,0,False,0.0,0.0,0.0,0.0,0.0,9441,0,0,0,0,9441
0.0,0.0,0.0,0.0,0.0,0.0,1016.0089111328125,22.06999969482422,7.176415920257568,-1.6766313314437866,0,0,0.0,0.0,0.0,0,False,0.0,0.0,0.0,0.0,0.0,9491,0,0,0,0,9491
0.0,0.0,0.0,0.0,0.0,0.0,1015.9404907226562,22.030000686645508,7.744504928588867,0.9310508966445923,0,0,0.0,0.0,0.0,0,False,0.0,0.0,0.0,0.0,0.0,9541,0,0,0,0,9541
0.0,0.0,0.0,0.0,0.0,0.0,1015.9404907226562,22.030000686645508,7.744504928588867,0.7448407411575317,0,0,0.0,0.0,0.0,0,False,0.0,0.0,0.0,0.0,0.0,9591,0,0,0,0,9591
0.0,0.0,0.0,0.0,0.0,0.0,1015.8818969726562,21.989999771118164,8.233325958251953,2.551156759262085,0,0,0.0,0.0,0.0,0,False,0.0,0.0,0.0,0.0,0.0,9641,0,0,0,0,9641
0.0,0.0,0.0,0.0,0.0,0.0,1015.8818969726562,21.989999771118164,8.233325958251953,2.0409255027770996,0,0,0.0,0.0,0.0,0,False,0.0,0.0,0.0,0.0,0.0,9691,0,0,0,0,9691
0.0,0.0,0.0,0.0,0.0,0.0,1015.9464111328125,22.030000686645508,7.696943759918213,-0.5127884149551392,0,0,0.0,0.0,0.0,0,False,0.0,0.0,0.0,0.0,0.0,9741,0,0,0,0,9741
0.0,0.0,0.0,0.0,0.0,0.0,1015.9464111328125,22.030000686645508,7.696943759918213,-0.41023072600364685,0,0,0.0,0.0,0.0,0,False,0.0,0.0,0.0,0.0,0.0,9791,0,0,0,0,9791
0.0,0.0,0.0,0.0,0.0,0.0,1016.0050048828125,22.06999969482422,7.210765361785889,-2.2728981971740723,0,0,0.0,0.0,0.0,0,False,0.0,0.0,0.0,0.0,0.0,9841,0,0,0,0,9841
0.0,0.0,0.0,0.0,0.0,0.0,1016.0050048828125,22.06999969482422,7.210765361785889,-1.8183186054229736,0,0,0.0,0.0,0.0,0,False,0.0,0.0,0.0,0.0,0.0,9891,0,0,0,0,9891
0.0,0.0,0.0,0.0,0.0,0.0,1015.9381103515625,22.030000686645508,7.765643119812012,0.7213363647460938,0,0,0.0,0.0,0.0,0,False,0.0,0.0,0.0,0.0,0.0,9942,0,0,0,0,9942
0.0,0.0,0.0,0.0,0.0,0.0,1015.9381103515625,22.030000686645508,7.765643119812012,0.577069103717804,0,0,0.0,0.0,0.0,0,False,0.0,0.0,0.0,0.0,0.0,9992,0,0,0,0,9992
0.0,0.0,0.0,0.0,0.0,0.0,1015.8778686523438,21.989999771118164,8.265032768249512,2.459213972091675,0,0,0.0,0.0,0.0,0,False,0.0,0.0,0.0,0.0,0.0,10042,0,0,0,0,10042
0.0,0.0,0.0,0.0,0.0,0.0,1015.8778686523438,21.989999771118164,8.265032768249512,1.9673712253570557,0,0,0.0,0.0,0.0,0,False,0.0,0.0,0.0,0.0,0.0,10092,0,0,0,0,10092
0.0,0.0,0.0,0.0,0.0,0.0,1015.9404907226562,22.030000686645508,7.744504928588867,-0.5082143545150757,0,0,0.0,0.0,0.0,0,False,0.0,0.0,0.0,0.0,0.0,10142,0,0,0,0,10142
0.0,0.0,0.0,0.0,0.0,0.0,1015.9404907226562,22.030000686645508,7.744504928588867,-0.40657147765159607,0,0,0.0,0.0,0.0,0,False,0.0,0.0,0.0,0.0,0.0,10192,0,0,0,0,10192
0.0,0.0,0.0,0.0,0.0,0.0,1015.9993896484375,22.06999969482422,7.255683898925781,-2.28054141998291,0,0,0.0,0.0,0.0,0,False,0.0,0.0,0.0,0.0,0.0,10242,0,0,0,0,10242
0.0,0.0,0.0,0.0,0.0,0.0,1015.9993896484375,22.06999969482422,7.255683898925781,-1.8244332075119019,0,0,0.0,0.0,0.0,0,False,0.0,0.0,0.0,0.0,0.0,10292,0,0,0,0,10292
0.0,0.0,0.0,0.0,0.0,0.0,1015.938720703125,22.030000686645508,7.7603583335876465,0.5591511726379395,0,0,0.0,0.0,0.0,0,False,0.0,0.0,0.0,0.0,0.0,10342,0,0,0,0,10342
0.0,0.0,0.0,0.0,0.0,0.0,1015.938720703125,22.030000686645508,7.7603583335876465,0.44732093811035156,0,0,0.0,0.0,0.0,0,False,0.0,0.0,0.0,0.0,0.0,10392,0,0,0,0,10392
0.0,0.0,0.0,0.0,0.0,0.0,1015.8802490234375,21.989999771118164,8.246537208557129,2.302572250366211,0,0,0.0,0.0,0.0,0,False,0.0,0.0,0.0,0.0,0.0,10442,0,0,0,0,10442
0.0,0.0,0.0,0.0,0.0,0.0,1015.8802490234375,21.989999771118164,8.246537208557129,1.8420578241348267,0,0,0.0,0.0,0.0,0,False,0.0,0.0,0.0,0.0,0.0,10492,0,0,0,0,10492
0.0,0.0,0.0,0.0,0.0,0.0,1015.943115234375,22.030000686645508,7.723366737365723,-0.6190356016159058,0,0,0.0,0.0,0.0,0,False,0.0,0.0,0.0,0.0,0.0,10542,0,0,0,0,10542
0.0,0.0,0.0,0.0,0.0,0.0,1015.943115234375,22.030000686645508,7.723366737365723,-0.49522849917411804,0,0,0.0,0.0,0.0,0,False,0.0,0.0,0.0,0.0,0.0,10592,0,0,0,0,10592
0.0,0.0,0.0,0.0,0.0,0.0,1016.001708984375,22.06999969482422,7.237188339233398,-2.3408963680267334,0,0,0.0,0.0,0.0,0,False,0.0,0.0,0.0,0.0,0.0,10642,0,0,0,0,10642
0.0,0.0,0.0,0.0,0.0,0.0,1016.001708984375,22.06999969482422,7.237188339233398,-1.8727171421051025,0,0,0.0,0.0,0.0,0,False,0.0,0.0,0.0,0.0,0.0,10692,0,0,0,0,10692
0.0,0.0,0.0,0.0,0.0,0.0,1015.9371948242188,22.030000686645508,7.7735700607299805,0.6473531723022461,0,0,0.0,0.0,0.0,0,False,0.0,0.0,0.0,0.0,0.0,10742,0,0,0,0,10742
0.0,0.0,0.0,0.0,0.0,0.0,1015.9371948242188,22.030000686645508,7.7735700607299805,0.5178825259208679,0,0,0.0,0.0,0.0,0,False,0.0,0.0,0.0,0.0,0.0,10792,0,0,0,0,10792
0.0,0.0,0.0,0.0,0.0,0.0,1015.8809204101562,21.989999771118164,8.241251945495605,2.2850334644317627,0,0,0.0,0.0,0.0,0,False,0.0,0.0,0.0,0.0,0.0,10842,0,0,0,0,10842
0.0,0.0,0.0,0.0,0.0,0.0,1015.8809204101562,21.989999771118164,8.241251945495605,1.8280267715454102,0,0,0.0,0.0,0.0,0,False,0.0,0.0,0.0,0.0,0.0,10892,0,0,0,0,10892
0.0,0.0,0.0,0.0,0.0,0.0,1015.9434204101562,22.030000686645508,7.720724105834961,-0.61968994140625,0,0,0.0,0.0,0.0,0,False,0.0,0.0,0.0,0.0,0.0,10942,0,0,0,0,10942
0.0,0.0,0.0,0.0,0.0,0.0,1015.9434204101562,22.030000686645508,7.720724105834961,-0.4957519471645355,0,0,0.0,0.0,0.0,0,False,0.0,0.0,0.0,0.0,0.0,10992,0,0,0,0,10992
0.0,0.0,0.0,0.0,0.0,0.0,1016.00244140625,22.06999969482422,7.231903553009033,-2.351883888244629,0,0,0.0,0.0,0.0,0,False,0.0,0.0,0.0,0.0,0.0,11042,0,0,0,0,11042
0.0,0.0,0.0,0.0,0.0,0.0,1016.00244140625,22.06999969482422,7.231903553009033,-1.881507158279419,0,0,0.0,0.0,0.0,0,False,0.0,0.0,0.0,0.0,0.0,11092,0,0,0,0,11092
0.0,0.0,0.0,0.0,0.0,0.0,1015.9451293945312,22.030000686645508,7.707512855529785,0.39723145961761475,0,0,0.0,0.0,0.0,0,False,0.0,0.0,0.0,0.0,0.0,11142,0,0,0,0,11142
0.0,0.0,0.0,0.0,0.0,0.0,1015.9451293945312,22.030000686645508,7.707512855529785,0.3177851736545563,0,0,0.0,0.0,0.0,0,False,0.0,0.0,0.0,0.0,0.0,11192,0,0,0,0,11192
0.0,0.0,0.0,0.0,0.0,0.0,1015.888916015625,22.0,8.175195693969727,2.1249594688415527,0,0,0.0,0.0,0.0,0,False,0.0,0.0,0.0,0.0,0.0,11242,0,0,0,0,11242
0.0,0.0,0.0,0.0,0.0,0.0,1015.888916015625,22.0,8.175195693969727,1.699967622756958,0,0,0.0,0.0,0.0,0,False,0.0,0.0,0.0,0.0,0.0,11292,0,0,0,0,11292
0.0,0.0,0.0,0.0,0.0,0.0,1015.951416015625,22.040000915527344,7.654667377471924,-0.7221391201019287,0,0,0.0,0.0,0.0,0,False,0.0,0.0,0.0,0.0,0.0,11342,0,0,0,0,11342
0.0,0.0,0.0,0.0,0.0,0.0,1015.951416015625,22.040000915527344,7.654667377471924,-0.577711284160614,0,0,0.0,0.0,0.0,0,False,0.0,0.0,0.0,0.0,0.0,11392,0,0,0,0,11392
0.0,0.0,0.0,0.0,0.0,0.0,1016.0076293945312,22.06999969482422,7.186985015869141,-2.3328983783721924,0,0,0.0,0.0,0.0,0,False,0.0,0.0,0.0,0.0,0.0,11442,0,0,0,0,11442
0.0,0.0,0.0,0.0,0.0,0.0,1016.0076293945312,22.06999969482422,7.186985015869141,-1.866318702697754,0,0,0.0,0.0,0.0,0,False,0.0,0.0,0.0,0.0,0.0,11492,0,0,0,0,11492
0.0,0.0,0.0,0.0,0.0,0.0,1015.9508056640625,22.040000915527344,7.659952163696289,0.3988136053085327,0,0,0.0,0.0,0.0,0,False,0.0,0.0,0.0,0.0,0.0,11542,0,0,0,0,11542
0.0,0.0,0.0,0.0,0.0,0.0,1015.9508056640625,22.040000915527344,7.659952163696289,0.3190508782863617,0,0,0.0,0.0,0.0,0,False,0.0,0.0,0.0,0.0,0.0,11592,0,0,0,0,11592
0.0,0.0,0.0,0.0,0.0,0.0,1015.89208984375,22.0,8.148773193359375,2.210524797439575,0,0,0.0,0.0,0.0,0,False,0.0,0.0,0.0,0.0,0.0,11642,0,0,0,0,11642
0.0,0.0,0.0,0.0,0.0,0.0,1015.89208984375,22.0,8.148773193359375,1.768419861793518,0,0,0.0,0.0,0.0,0,False,0.0,0.0,0.0,0.0,0.0,11692,0,0,0,0,11692
0.0,0.0,0.0,0.0,0.0,0.0,1015.9547119140625,22.040000915527344,7.628244876861572,-0.6673773527145386,0,0,0.0,0.0,0.0,0,False,0.0,0.0,0.0,0.0,0.0,11742,0,0,0,0,11742
0.0,0.0,0.0,0.0,0.0,0.0,1015.9547119140625,22.040000915527344,7.628244876861572,-0.5339018702507019,0,0,0.0,0.0,0.0,0,False,0.0,0.0,0.0,0.0,0.0,11792,0,0,0,0,11792
0.0,0.0,0.0,0.0,0.0,0.0,1016.0153198242188,22.079999923706055,7.123570442199707,-2.445819139480591,0,0,0.0,0.0,0.0,0,False,0.0,0.0,0.0,0.0,0.0,11842,0,0,0,0,11842
0.0,0.0,0.0,0.0,0.0,0.0,1016.0153198242188,22.079999923706055,7.123570442199707,-1.9566553831100464,0,0,0.0,0.0,0.0,0,False,0.0,0.0,0.0,0.0,0.0,11892,0,0,0,0,11892
0.0,0.0,0.0,0.0,0.0,0.0,1015.9547119140625,22.040000915527344,7.628244876861572,0.45337343215942383,0,0,0.0,0.0,0.0,0,False,0.0,0.0,0.0,0.0,0.0,11942,0,0,0,0,11942
0.0,0.0,0.0,0.0,0.0,0.0,1015.9547119140625,22.040000915527344,7.628244876861572,0.3626987636089325,0,0,0.0,0.0,0.0,0,False,0.0,0.0,0.0,0.0,0.0,11992,0,0,0,0,11992
0.0,0.0,0.0,0.0,0.0,0.0,1015.8984375,22.0,8.095927238464355,2.160888433456421,0,0,0.0,0.0,0.0,0,False,0.0,0.0,0.0,0.0,0.0,12042,0,0,0,0,12042
0.0,0.0,0.0,0.0,0.0,0.0,1015.8984375,22.0,8.095927238464355,1.7287107706069946,0,0,0.0,0.0,0.0,0,False,0.0,0.0,0.0,0.0,0.0,12092,0,0,0,0,12092
0.0,0.0,0.0,0.0,0.0,0.0,1015.9613037109375,22.040000915527344,7.572756767272949,-0.7097132205963135,0,0,0.0,0.0,0.0,0,False,0.0,0.0,0.0,0.0,0.0,12142,0,0,0,0,12142
0.0,0.0,0.0,0.0,0.0,0.0,1015.9613037109375,22.040000915527344,7.572756767272949,-0.5677706003189087,0,0,0.0,0.0,0.0,0,False,0.0,0.0,0.0,0.0,0.0,12192,0,0,0,0,12192
0.0,0.0,0.0,0.0,0.0,0.0,1016.0176391601562,22.079999923706055,7.105074405670166,-2.3249459266662598,0,0,0.0,0.0,0.0,0,False,0.0,0.0,0.0,0.0,0.0,12242,0,0,0,0,12242
0.0,0.0,0.0,0.0,0.0,0.0,1016.0176391601562,22.079999923706055,7.105074405670166,-1.8599567413330078,0,0,0.0,0.0,0.0,0,False,0.0,0.0,0.0,0.0,0.0,12292,0,0,0,0,12292
0.0,0.0,0.0,0.0,0.0,0.0,1015.9613037109375,22.040000915527344,7.572756767272949,0.38276398181915283,0,0,0.0,0.0,0.0,0,False,0.0,0.0,0.0,0.0,0.0,12342,0,0,0,0,12342
0.0,0.0,0.0,0.0,0.0,0.0,1015.9613037109375,22.040000915527344,7.572756767272949,0.3062112033367157,0,0,0.0,0.0,0.0,0,False,0.0,0.0,0.0,0.0,0.0,12392,0,0,0,0,12392
0.0,0.0,0.0,0.0,0.0,0.0,1015.91064453125,22.010000228881836,7.992878437042236,1.9254556894302368,0,0,0.0,0.0,0.0,0,False,0.0,0.0,0.0,0.0,0.0,12442,0,0,0,0,12442
0.0,0.0,0.0,0.0,0.0,0.0,1015.91064453125,22.010000228881836,7.992878437042236,1.5403646230697632,0,0,0.0,0.0,0.0,0,False,0.0,0.0,0.0,0.0,0.0,12492,0,0,0,0,12492
0.0,0.0,0.0,0.0,0.0,0.0,1015.96923828125,22.049999237060547,7.506700038909912,-0.7124218940734863,0,0,0.0,0.0,0.0,0,False,0.0,0.0,0.0,0.0,0.0,12542,0,0,0,0,12542
0.0,0.0,0.0,0.0,0.0,0.0,1015.96923828125,22.049999237060547,7.506700038909912,-0.569937527179718,0,0,0.0,0.0,0.0,0,False,0.0,0.0,0.0,0.0,0.0,12592,0,0,0,0,12592
0.0,0.0,0.0,0.0,0.0,0.0,1016.0265502929688,22.09000015258789,7.03109073638916,-2.3583872318267822,0,0,0.0,0.0,0.0,0,False,0.0,0.0,0.0,0.0,0.0,12642,0,0,0,0,12642
0.0,0.0,0.0,0.0,0.0,0.0,1016.0265502929688,22.09000015258789,7.03109073638916,-1.8867098093032837,0,0,0.0,0.0,0.0,0,False,0.0,0.0,0.0,0.0,0.0,12692,0,0,0,0,12692
0.0,0.0,0.0,0.0,0.0,0.0,1015.9715576171875,22.049999237060547,7.488204002380371,0.3190852403640747,0,0,0.0,0.0,0.0,0,False,0.0,0.0,0.0,0.0,0.0,12742,0,0,0,0,12742
0.0,0.0,0.0,0.0,0.0,0.0,1015.9715576171875,22.049999237060547,7.488204002380371,0.2552681863307953,0,0,0.0,0.0,0.0,0,False,0.0,0.0,0.0,0.0,0.0,12792,0,0,0,0,12792
0.0,0.0,0.0,0.0,0.0,0.0,1015.9170532226562,22.020000457763672,7.940032958984375,1.97609281539917,0,0,0.0,0.0,0.0,0,False,0.0,0.0,0.0,0.0,0.0,12843,0,0,0,0,12843
0.0,0.0,0.0,0.0,0.0,0.0,1015.9170532226562,22.020000457763672,7.940032958984375,1.5808743238449097,0,0,0.0,0.0,0.0,0,False,0.0,0.0,0.0,0.0,0.0,12893,0,0,0,0,12893
0.0,0.0,0.0,0.0,0.0,0.0,1015.9798583984375,22.059999465942383,7.4195051193237305,-0.8174118995666504,0,0,0.0,0.0,0.0,0,False,0.0,0.0,0.0,0.0,0.0,12943,0,0,0,0,12943
0.0,0.0,0.0,0.0,0.0,0.0,1015.9798583984375,22.059999465942383,7.4195051193237305,-0.6539295315742493,0,0,0.0,0.0,0.0,0,False,0.0,0.0,0.0,0.0,0.0,12993,0,0,0,0,12993
0.0,0.0,0.0,0.0,0.0,0.0,1016.0361938476562,22.09000015258789,6.951822757720947,-2.3938732147216797,0,0,0.0,0.0,0.0,0,False,0.0,0.0,0.0,0.0,0.0,13043,0,0,0,0,13043
0.0,0.0,0.0,0.0,0.0,0.0,1016.0361938476562,22.09000015258789,6.951822757720947,-1.9150985479354858,0,0,0.0,0.0,0.0,0,False,0.0,0.0,0.0,0.0,0.0,13093,0,0,0,0,13093
0.0,0.0,0.0,0.0,0.0,0.0,1015.98388671875,22.059999465942383,7.38515567779541,0.20125281810760498,0,0,0.0,0.0,0.0,0,False,0.0,0.0,0.0,0.0,0.0,13143,0,0,0,0,13143
0.0,0.0,0.0,0.0,0.0,0.0,1015.98388671875,22.059999465942383,7.38515567779541,0.1610022634267807,0,0,0.0,0.0,0.0,0,False,0.0,0.0,0.0,0.0,0.0,13193,0,0,0,0,13193
0.0,0.0,0.0,0.0,0.0,0.0,1015.9371948242188,22.030000686645508,7.7735700607299805,1.6824593544006348,0,0,0.0,0.0,0.0,0,False,0.0,0.0,0.0,0.0,0.0,13243,0,0,0,0,13243
0.0,0.0,0.0,0.0,0.0,0.0,1015.9371948242188,22.030000686645508,7.7735700607299805,1.3459675312042236,0,0,0.0,0.0,0.0,0,False,0.0,0.0,0.0,0.0,0.0,13293,0,0,0,0,13293
0.0,0.0,0.0,0.0,0.0,0.0,1015.9977416992188,22.06999969482422,7.271537780761719,-0.9313551187515259,0,0,0.0,0.0,0.0,0,False,0.0,0.0,0.0,0.0,0.0,13343,0,0,0,0,13343
0.0,0.0,0.0,0.0,0.0,0.0,1015.9977416992188,22.06999969482422,7.271537780761719,-0.7450841069221497,0,0,0.0,0.0,0.0,0,False,0.0,0.0,0.0,0.0,0.0,13393,0,0,0,0,13393
0.0,0.0,0.0,0.0,0.0,0.0,1016.0523681640625,22.100000381469727,6.817066669464111,-2.413951873779297,0,0,0.0,0.0,0.0,0,False,0.0,0.0,0.0,0.0,0.0,13443,0,0,0,0,13443
0.0,0.0,0.0,0.0,0.0,0.0,1016.0523681640625,22.100000381469727,6.817066669464111,-1.9311615228652954,0,0,0.0,0.0,0.0,0,False,0.0,0.0,0.0,0.0,0.0,13493,0,0,0,0,13493
0.0,0.0,0.0,0.0,0.0,0.0,1016.0032958984375,22.06999969482422,7.223977088928223,0.08271241188049316,0,0,0.0,0.0,0.0,0,False,0.0,0.0,0.0,0.0,0.0,13543,0,0,0,0,13543
0.0,0.0,0.0,0.0,0.0,0.0,1016.0032958984375,22.06999969482422,7.223977088928223,0.06616993248462677,0,0,0.0,0.0,0.0,0,False,0.0,0.0,0.0,0.0,0.0,13593,0,0,0,0,13593
0.0,0.0,0.0,0.0,0.0,0.0,1015.9547119140625,22.040000915527344,7.628244876861572,1.6700071096420288,0,0,0.0,0.0,0.0,0,False,0.0,0.0,0.0,0.0,0.0,13643,0,0,0,0,13643
0.0,0.0,0.0,0.0,0.0,0.0,1015.9547119140625,22.040000915527344,7.628244876861572,1.336005687713623,0,0,0.0,0.0,0.0,0,False,0.0,0.0,0.0,0.0,0.0,13694,0,0,0,0,13694
0.0,0.0,0.0,0.0,0.0,0.0,1016.0136108398438,22.079999923706055,7.1394243240356445,-0.8864775896072388,0,0,0.0,0.0,0.0,0,False,0.0,0.0,0.0,0.0,0.0,13744,0,0,0,0,13744
0.0,0.0,0.0,0.0,0.0,0.0,1016.0136108398438,22.079999923706055,7.1394243240356445,-0.70918208360672,0,0,0.0,0.0,0.0,0,False,0.0,0.0,0.0,0.0,0.0,13794,0,0,0,0,13794
0.0,0.0,0.0,0.0,0.0,0.0,1016.068603515625,22.110000610351562,6.682310581207275,-2.3958005905151367,0,0,0.0,0.0,0.0,0,False,0.0,0.0,0.0,0.0,0.0,13844,0,0,0,0,13844
0.0,0.0,0.0,0.0,0.0,0.0,1016.068603515625,22.110000610351562,6.682310581207275,-1.9166405200958252,0,0,0.0,0.0,0.0,0,False,0.0,0.0,0.0,0.0,0.0,13894,0,0,0,0,13894
0.0,0.0,0.0,0.0,0.0,0.0,1016.0136108398438,22.079999923706055,7.1394243240356445,0.2951425313949585,0,0,0.0,0.0,0.0,0,False,0.0,0.0,0.0,0.0,0.0,13944,0,0,0,0,13944
0.0,0.0,0.0,0.0,0.0,0.0,1016.0136108398438,22.079999923706055,7.1394243240356445,0.2361140251159668,0,0,0.0,0.0,0.0,0,False,0.0,0.0,0.0,0.0,0.0,13995,0,0,0,0,13995
0.0,0.0,0.0,0.0,0.0,0.0,1015.9629516601562,22.040000915527344,7.559545516967773,1.8693759441375732,0,0,0.0,0.0,0.0,0,False,0.0,0.0,0.0,0.0,0.0,14045,0,0,0,0,14045
0.0,0.0,0.0,0.0,0.0,0.0,1015.9629516601562,22.040000915527344,7.559545516967773,1.4955008029937744,0,0,0.0,0.0,0.0,0,False,0.0,0.0,0.0,0.0,0.0,14095,0,0,0,0,14095
0.0,0.0,0.0,0.0,0.0,0.0,1016.023193359375,22.079999923706055,7.060155868530273,-0.8011579513549805,0,0,0.0,0.0,0.0,0,False,0.0,0.0,0.0,0.0,0.0,14145,0,0,0,0,14145
0.0,0.0,0.0,0.0,0.0,0.0,1016.023193359375,22.079999923706055,7.060155868530273,-0.6409263610839844,0,0,0.0,0.0,0.0,0,False,0.0,0.0,0.0,0.0,0.0,14195,0,0,0,0,14195
0.0,0.0,0.0,0.0,0.0,0.0,1016.0738525390625,22.1200008392334,6.637392044067383,-2.20379638671875,0,0,0.0,0.0,0.0,0,False,0.0,0.0,0.0,0.0,0.0,14245,0,0,0,0,14245
0.0,0.0,0.0,0.0,0.0,0.0,1016.0738525390625,22.1200008392334,6.637392044067383,-1.763037085533142,0,0,0.0,0.0,0.0,0,False,0.0,0.0,0.0,0.0,0.0,14295,0,0,0,0,14295
0.0,0.0,0.0,0.0,0.0,0.0,1016.0153198242188,22.079999923706055,7.123570442199707,0.5342838764190674,0,0,0.0,0.0,0.0,0,False,0.0,0.0,0.0,0.0,0.0,14345,0,0,0,0,14345
0.0,0.0,0.0,0.0,0.0,0.0,1016.0153198242188,22.079999923706055,7.123570442199707,0.42742711305618286,0,0,0.0,0.0,0.0,0,False,0.0,0.0,0.0,0.0,0.0,14395,0,0,0,0,14395
0.0,0.0,0.0,0.0,0.0,0.0,1015.9547119140625,22.040000915527344,7.628244876861572,2.3606393337249756,0,0,0.0,0.0,0.0,0,False,0.0,0.0,0.0,0.0,0.0,14445,0,0,0,0,14445
0.0,0.0,0.0,0.0,0.0,0.0,1015.9547119140625,22.040000915527344,7.628244876861572,1.8885115385055542,0,0,0.0,0.0,0.0,0,False,0.0,0.0,0.0,0.0,0.0,14495,0,0,0,0,14495
0.0,0.0,0.0,0.0,0.0,0.0,1016.0153198242188,22.079999923706055,7.123570442199707,-0.5078884363174438,0,0,0.0,0.0,0.0,0,False,0.0,0.0,0.0,0.0,0.0,14545,0,0,0,0,14545
0.0,0.0,0.0,0.0,0.0,0.0,1016.0153198242188,22.079999923706055,7.123570442199707,-0.4063107669353485,0,0,0.0,0.0,0.0,0,False,0.0,0.0,0.0,0.0,0.0,14595,0,0,0,0,14595
0.0,0.0,0.0,0.0,0.0,0.0,1016.0718994140625,22.110000610351562,6.655888080596924,-2.1957781314849854,0,0,0.0,0.0,0.0,0,False,0.0,0.0,0.0,0.0,0.0,14645,0,0,0,0,14645
0.0,0.0,0.0,0.0,0.0,0.0,1016.0718994140625,22.110000610351562,6.655888080596924,-1.756622552871704,0,0,0.0,0.0,0.0,0,False,0.0,0.0,0.0,0.0,0.0,14695,0,0,0,0,14695
0.0,0.0,0.0,0.0,0.0,0.0,1016.0032958984375,22.06999969482422,7.223977088928223,0.8670579195022583,0,0,0.0,0.0,0.0,0,False,0.0,0.0,0.0,0.0,0.0,14745,0,0,0,0,14745
0.0,0.0,0.0,0.0,0.0,0.0,1016.0032958984375,22.06999969482422,7.223977088928223,0.6936463713645935,0,0,0.0,0.0,0.0,0,False,0.0,0.0,0.0,0.0,0.0,14795,0,0,0,0,14795
0.0,0.0,0.0,0.0,0.0,0.0,1015.943115234375,22.030000686645508,7.723366737365723,2.552475690841675,0,0,0.0,0.0,0.0,0,False,0.0,0.0,0.0,0.0,0.0,14845,0,0,0,0,14845
0.0,0.0,0.0,0.0,0.0,0.0,1015.943115234375,22.030000686645508,7.723366737365723,2.041980504989624,0,0,0.0,0.0,0.0,0,False,0.0,0.0,0.0,0.0,0.0,14895,0,0,0,0,14895
0.0,0.0,0.0,0.0,0.0,0.0,1016.001708984375,22.06999969482422,7.237188339233398,-0.31112921237945557,0,0,0.0,0.0,0.0,0,False,0.0,0.0,0.0,0.0,0.0,14945,0,0,0,0,14945
0.0,0.0,0.0,0.0,0.0,0.0,1016.001708984375,22.06999969482422,7.237188339233398,-0.24890337884426117,0,0,0.0,0.0,0.0,0,False,0.0,0.0,0.0,0.0,0.0,14995,0,0,0,0,14995
0.0,0.0,0.0,0.0,0.0,0.0,1016.0579833984375,22.110000610351562,6.769505500793457,-2.0698540210723877,0,0,0.0,0.0,0.0,0,False,0.0,0.0,0.0,0.0,0.0,15045,0,0,0,0,15045
0.0,0.0,0.0,0.0,0.0,0.0,1016.0579833984375,22.110000610351562,6.769505500793457,-1.6558831930160522,0,0,0.0,0.0,0.0,0,False,0.0,0.0,0.0,0.0,0.0,15095,0,0,0,0,15095
0.0,0.0,0.0,0.0,0.0,0.0,1015.9953002929688,22.059999465942383,7.29003381729126,0.7574067115783691,0,0,0.0,0.0,0.0,0,False,0.0,0.0,0.0,0.0,0.0,15145,0,0,0,0,15145
0.0,0.0,0.0,0.0,0.0,0.0,1015.9953002929688,22.059999465942383,7.29003381729126,0.6059253811836243,0,0,0.0,0.0,0.0,0,False,0.0,0.0,0.0,0.0,0.0,15195,0,0,0,0,15195
0.0,0.0,0.0,0.0,0.0,0.0,1015.934814453125,22.030000686645508,7.792065620422363,2.4928674697875977,0,0,0.0,0.0,0.0,0,False,0.0,0.0,0.0,0.0,0.0,15245,0,0,0,0,15245
0.0,0.0,0.0,0.0,0.0,0.0,1015.934814453125,22.030000686645508,7.792065620422363,1.9942940473556519,0,0,0.0,0.0,0.0,0,False,0.0,0.0,0.0,0.0,0.0,15296,0,0,0,0,15296
0.0,0.0,0.0,0.0,0.0,0.0,1015.9854736328125,22.059999465942383,7.371944427490234,-0.08504951000213623,0,0,0.0,0.0,0.0,0,False,0.0,0.0,0.0,0.0,0.0,15346,0,0,0,0,15346
0.0,0.0,0.0,0.0,0.0,0.0,1015.9854736328125,22.059999465942383,7.371944427490234,-0.06803961098194122,0,0,0.0,0.0,0.0,0,False,0.0,0.0,0.0,0.0,0.0,15396,0,0,0,0,15396
0.0,0.0,0.0,0.0,0.0,0.0,1016.041748046875,22.100000381469727,6.904261589050293,-1.9251630306243896,0,0,0.0,0.0,0.0,0,False,0.0,0.0,0.0,0.0,0.0,15446,0,0,0,0,15446
0.0,0.0,0.0,0.0,0.0,0.0,1016.041748046875,22.100000381469727,6.904261589050293,-1.5401304960250854,0,0,0.0,0.0,0.0,0,False,0.0,0.0,0.0,0.0,0.0,15496,0,0,0,0,15496
0.0,0.0,0.0,0.0,0.0,0.0,1015.983154296875,22.059999465942383,7.390439987182617,0.7126091718673706,0,0,0.0,0.0,0.0,0,False,0.0,0.0,0.0,0.0,0.0,15546,0,0,0,0,15546
0.0,0.0,0.0,0.0,0.0,0.0,1015.983154296875,22.059999465942383,7.390439987182617,0.5700873732566833,0,0,0.0,0.0,0.0,0,False,0.0,0.0,0.0,0.0,0.0,15596,0,0,0,0,15596
0.0,0.0,0.0,0.0,0.0,0.0,1015.9285278320312,22.020000457763672,7.844911098480225,2.273954391479492,0,0,0.0,0.0,0.0,0,False,0.0,0.0,0.0,0.0,0.0,15646,0,0,0,0,15646
0.0,0.0,0.0,0.0,0.0,0.0,1015.9285278320312,22.020000457763672,7.844911098480225,1.8191635608673096,0,0,0.0,0.0,0.0,0,False,0.0,0.0,0.0,0.0,0.0,15696,0,0,0,0,15696
0.0,0.0,0.0,0.0,0.0,0.0,1015.9064331054688,22.010000228881836,8.027228355407715,2.1845998764038086,0,0,0.0,0.0,0.0,0,False,0.0,0.0,0.0,0.0,0.0,15746,0,0,0,0,15746
0.0,0.0,0.0,0.0,0.0,0.0,1015.9064331054688,22.010000228881836,8.027228355407715,1.7476799488067627,0,0,0.0,0.0,0.0,0,False,0.0,0.0,0.0,0.0,0.0,15796,0,0,0,0,15796
0.0,0.0,0.0,0.0,0.0,0.0,1015.9724731445312,22.049999237060547,7.4802775382995605,-0.7896592617034912,0,0,0.0,0.0,0.0,0,False,0.0,0.0,0.0,0.0,0.0,15846,0,0,0,0,15846
0.0,0.0,0.0,0.0,0.0,0.0,1015.9724731445312,22.049999237060547,7.4802775382995605,-0.631727397441864,0,0,0.0,0.0,0.0,0,False,0.0,0.0,0.0,0.0,0.0,15896,0,0,0,0,15896
0.0,0.0,0.0,0.0,0.0,0.0,1015.91796875,22.010000228881836,7.932106018066406,1.3019319772720337,0,0,0.0,0.0,0.0,0,False,0.0,0.0,0.0,0.0,0.0,15946,0,0,0,0,15946
0.0,0.0,0.0,0.0,0.0,0.0,1015.91796875,22.010000228881836,7.932106018066406,1.0415456295013428,0,0,0.0,0.0,0.0,0,False,0.0,0.0,0.0,0.0,0.0,15996,0,0,0,0,15996
0.0,0.0,0.0,0.0,0.0,0.0,1015.8672485351562,21.979999542236328,8.354869842529297,2.524291753768921,0,0,0.0,0.0,0.0,0,False,0.0,0.0,0.0,0.0,0.0,16046,0,0,0,0,16046
0.0,0.0,0.0,0.0,0.0,0.0,1015.8672485351562,21.979999542236328,8.354869842529297,2.0194334983825684,0,0,0.0,0.0,0.0,0,False,0.0,0.0,0.0,0.0,0.0,16096,0,0,0,0,16096
0.0,0.0,0.0,0.0,0.0,0.0,1015.8616943359375,21.979999542236328,8.399788856506348,1.7952228784561157,0,0,0.0,0.0,0.0,0,False,0.0,0.0,0.0,0.0,0.0,16146,0,0,0,0,16146
0.0,0.0,0.0,0.0,0.0,0.0,1015.8616943359375,21.979999542236328,8.399788856506348,1.4361783266067505,0,0,0.0,0.0,0.0,0,False,0.0,0.0,0.0,0.0,0.0,16196,0,0,0,0,16196
0.0,0.0,0.0,0.0,0.0,0.0,1015.922607421875,22.020000457763672,7.895114421844482,-0.8697550296783447,0,0,0.0,0.0,0.0,0,False,0.0,0.0,0.0,0.0,0.0,16246,0,0,0,0,16246
0.0,0.0,0.0,0.0,0.0,0.0,1015.922607421875,22.020000457763672,7.895114421844482,-0.6958040595054626,0,0,0.0,0.0,0.0,0,False,0.0,0.0,0.0,0.0,0.0,16296,0,0,0,0,16296
0.0,0.0,0.0,0.0,0.0,0.0,1015.8719482421875,21.979999542236328,8.31523609161377,1.1238434314727783,0,0,0.0,0.0,0.0,0,False,0.0,0.0,0.0,0.0,0.0,16346,0,0,0,0,16346
0.0,0.0,0.0,0.0,0.0,0.0,1015.8719482421875,21.979999542236328,8.31523609161377,0.8990747332572937,0,0,0.0,0.0,0.0,0,False,0.0,0.0,0.0,0.0,0.0,16396,0,0,0,0,16396
0.0,0.0,0.0,0.0,0.0,0.0,1015.8236694335938,21.950000762939453,8.716861724853516,2.3257622718811035,0,0,0.0,0.0,0.0,0,False,0.0,0.0,0.0,0.0,0.0,16446,0,0,0,0,16446
0.0,0.0,0.0,0.0,0.0,0.0,1015.8236694335938,21.950000762939453,8.716861724853516,1.8606098890304565,0,0,0.0,0.0,0.0,0,False,0.0,0.0,0.0,0.0,0.0,16496,0,0,0,0,16496
0.0,0.0,0.0,0.0,0.0,0.0,1015.780029296875,21.93000030517578,9.078853607177734,2.936455488204956,0,0,0.0,0.0,0.0,0,False,0.0,0.0,0.0,0.0,0.0,16546,0,0,0,0,16546
0.0,0.0,0.0,0.0,0.0,0.0,1015.780029296875,21.93000030517578,9.078853607177734,2.3491644859313965,0,0,0.0,0.0,0.0,0,False,0.0,0.0,0.0,0.0,0.0,16596,0,0,0,0,16596
0.0,0.0,0.0,0.0,0.0,0.0,1015.8485107421875,21.969999313354492,8.510764122009277,-0.39302635192871094,0,0,0.0,0.0,0.0,0,False,0.0,0.0,0.0,0.0,0.0,16646,0,0,0,0,16646
0.0,0.0,0.0,0.0,0.0,0.0,1015.8485107421875,21.969999313354492,8.510764122009277,-0.3144210875034332,0,0,0.0,0.0,0.0,0,False,0.0,0.0,0.0,0.0,0.0,16696,0,0,0,0,16696
0.0,0.0,0.0,0.0,0.0,0.0,1015.8001708984375,21.940000534057617,8.909748077392578,1.3443989753723145,0,0,0.0,0.0,0.0,0,False,0.0,0.0,0.0,0.0,0.0,16746,0,0,0,0,16746
0.0,0.0,0.0,0.0,0.0,0.0,1015.8001708984375,21.940000534057617,8.909748077392578,1.0755192041397095,0,0,0.0,0.0,0.0,0,False,0.0,0.0,0.0,0.0,0.0,16796,0,0,0,0,16796
0.0,0.0,0.0,0.0,0.0,0.0,1015.752197265625,21.90999984741211,9.308731079101562,2.4563474655151367,0,0,0.0,0.0,0.0,0,False,0.0,0.0,0.0,0.0,0.0,16846,0,0,0,0,16846
0.0,0.0,0.0,0.0,0.0,0.0,1015.752197265625,21.90999984741211,9.308731079101562,1.9650779962539673,0,0,0.0,0.0,0.0,0,False,0.0,0.0,0.0,0.0,0.0,16896,0,0,0,0,16896
0.0,0.0,0.0,0.0,0.0,0.0,1015.7075805664062,21.8799991607666,9.678648948669434,3.05173397064209,0,0,0.0,0.0,0.0,0,False,0.0,0.0,0.0,0.0,0.0,16946,0,0,0,0,16946
0.0,0.0,0.0,0.0,0.0,0.0,1015.7075805664062,21.8799991607666,9.678648948669434,2.441387176513672,0,0,0.0,0.0,0.0,0,False,0.0,0.0,0.0,0.0,0.0,16996,0,0,0,0,16996
0.0,0.0,0.0,0.0,0.0,0.0,1015.7784423828125,21.93000030517578,9.09206485748291,-0.39322662353515625,0,0,0.0,0.0,0.0,0,False,0.0,0.0,0.0,0.0,0.0,17046,0,0,0,0,17046
0.0,0.0,0.0,0.0,0.0,0.0,1015.7784423828125,21.93000030517578,9.09206485748291,-0.3145813047885895,0,0,0.0,0.0,0.0,0,False,0.0,0.0,0.0,0.0,0.0,17096,0,0,0,0,17096
0.0,0.0,0.0,0.0,0.0,0.0,1015.7301025390625,21.899999618530273,9.493690490722656,1.354837417602539,0,0,0.0,0.0,0.0,0,False,0.0,0.0,0.0,0.0,0.0,17146,0,0,0,0,17146
0.0,0.0,0.0,0.0,0.0,0.0,1015.7301025390625,21.899999618530273,9.493690490722656,1.0838699340820312,0,0,0.0,0.0,0.0,0,False,0.0,0.0,0.0,0.0,0.0,17196,0,0,0,0,17196
0.0,0.0,0.0,0.0,0.0,0.0,1015.689697265625,21.8700008392334,9.829258918762207,2.209369659423828,0,0,0.0,0.0,0.0,0,False,0.0,0.0,0.0,0.0,0.0,17246,0,0,0,0,17246
0.0,0.0,0.0,0.0,0.0,0.0,1015.689697265625,21.8700008392334,9.829258918762207,1.7674957513809204,0,0,0.0,0.0,0.0,0,False,0.0,0.0,0.0,0.0,0.0,17297,0,0,0,0,17297
0.0,0.0,0.0,0.0,0.0,0.0,1015.64794921875,21.850000381469727,10.175396919250488,2.798548698425293,0,0,0.0,0.0,0.0,0,False,0.0,0.0,0.0,0.0,0.0,17347,0,0,0,0,17347
0.0,0.0,0.0,0.0,0.0,0.0,1015.64794921875,21.850000381469727,10.175396919250488,2.2388389110565186,0,0,0.0,0.0,0.0,0,False,0.0,0.0,0.0,0.0,0.0,17397,0,0,0,0,17397
0.0,0.0,0.0,0.0,0.0,0.0,1015.7244262695312,21.889999389648438,9.53860855102539,-0.75608229637146,0,0,0.0,0.0,0.0,0,False,0.0,0.0,0.0,0.0,0.0,17447,0,0,0,0,17447
0.0,0.0,0.0,0.0,0.0,0.0,1015.7244262695312,21.889999389648438,9.53860855102539,-0.6048658490180969,0,0,0.0,0.0,0.0,0,False,0.0,0.0,0.0,0.0,0.0,17497,0,0,0,0,17497
0.0,0.0,0.0,0.0,0.0,0.0,1015.6793823242188,21.860000610351562,9.913811683654785,1.0169198513031006,0,0,0.0,0.0,0.0,0,False,0.0,0.0,0.0,0.0,0.0,17547,0,0,0,0,17547
0.0,0.0,0.0,0.0,0.0,0.0,1015.6793823242188,21.860000610351562,9.913811683654785,0.8135358691215515,0,0,0.0,0.0,0.0,0,False,0.0,0.0,0.0,0.0,0.0,17597,0,0,0,0,17597
0.0,0.0,0.0,0.0,0.0,0.0,1015.6463012695312,21.84000015258789,10.188608169555664,1.7500146627426147,0,0,0.0,0.0,0.0,0,False,0.0,0.0,0.0,0.0,0.0,17647,0,0,0,0,17647
0.0,0.0,0.0,0.0,0.0,0.0,1015.6463012695312,21.84000015258789,10.188608169555664,1.4000117778778076,0,0,0.0,0.0,0.0,0,False,0.0,0.0,0.0,0.0,0.0,17697,0,0,0,0,17697
0.0,0.0,0.0,0.0,0.0,0.0,1015.6062622070312,21.809999465942383,10.52153491973877,2.451716423034668,0,0,0.0,0.0,0.0,0,False,0.0,0.0,0.0,0.0,0.0,17747,0,0,0,0,17747
0.0,0.0,0.0,0.0,0.0,0.0,1015.6062622070312,21.809999465942383,10.52153491973877,1.961373209953308,0,0,0.0,0.0,0.0,0,False,0.0,0.0,0.0,0.0,0.0,17797,0,0,0,0,17797
0.0,0.0,0.0,0.0,0.0,0.0,1015.6869506835938,21.8700008392334,9.850397109985352,-1.1154526472091675,0,0,0.0,0.0,0.0,0,False,0.0,0.0,0.0,0.0,0.0,17847,0,0,0,0,17847
0.0,0.0,0.0,0.0,0.0,0.0,1015.6869506835938,21.8700008392334,9.850397109985352,-0.892362117767334,0,0,0.0,0.0,0.0,0,False,0.0,0.0,0.0,0.0,0.0,17897,0,0,0,0,17897
0.0,0.0,0.0,0.0,0.0,0.0,1015.6439819335938,21.84000015258789,10.207103729248047,0.7129367589950562,0,0,0.0,0.0,0.0,0,False,0.0,0.0,0.0,0.0,0.0,17947,0,0,0,0,17947
0.0,0.0,0.0,0.0,0.0,0.0,1015.6439819335938,21.84000015258789,10.207103729248047,0.570349395275116,0,0,0.0,0.0,0.0,0,False,0.0,0.0,0.0,0.0,0.0,17997,0,0,0,0,17997
0.0,0.0,0.0,0.0,0.0,0.0,1015.6056518554688,21.809999465942383,10.526819229125977,1.7100658416748047,0,0,0.0,0.0,0.0,0,False,0.0,0.0,0.0,0.0,0.0,18048,0,0,0,0,18048
0.0,0.0,0.0,0.0,0.0,0.0,1015.6056518554688,21.809999465942383,10.526819229125977,1.3680527210235596,0,0,0.0,0.0,0.0,0,False,0.0,0.0,0.0,0.0,0.0,18098,0,0,0,0,18098
0.0,0.0,0.0,0.0,0.0,0.0,1015.5678100585938,21.790000915527344,10.841249465942383,2.352163314819336,0,0,0.0,0.0,0.0,0,False,0.0,0.0,0.0,0.0,0.0,18148,0,0,0,0,18148
0.0,0.0,0.0,0.0,0.0,0.0,1015.5678100585938,21.790000915527344,10.841249465942383,1.8817306756973267,0,0,0.0,0.0,0.0,0,False,0.0,0.0,0.0,0.0,0.0,18198,0,0,0,0,18198
0.0,0.0,0.0,0.0,0.0,0.0,1015.650634765625,21.84000015258789,10.151616096496582,-1.2531489133834839,0,0,0.0,0.0,0.0,0,False,0.0,0.0,0.0,0.0,0.0,18248,0,0,0,0,18248
0.0,0.0,0.0,0.0,0.0,0.0,1015.650634765625,21.84000015258789,10.151616096496582,-1.002519130706787,0,0,0.0,0.0,0.0,0,False,0.0,0.0,0.0,0.0,0.0,18298,0,0,0,0,18298
0.0,0.0,0.0,0.0,0.0,0.0,1015.6264038085938,21.829999923706055,10.352429389953613,0.0012378692626953125,0,0,0.0,0.0,0.0,0,False,0.0,0.0,0.0,0.0,0.0,18348,0,0,0,0,18348
0.0,0.0,0.0,0.0,0.0,0.0,1015.6264038085938,21.829999923706055,10.352429389953613,0.0009902954334393144,0,0,0.0,0.0,0.0,0,False,0.0,0.0,0.0,0.0,0.0,18398,0,0,0,0,18398
0.0,0.0,0.0,0.0,0.0,0.0,1015.6102294921875,21.81999969482422,10.48718547821045,0.5398166179656982,0,0,0.0,0.0,0.0,0,False,0.0,0.0,0.0,0.0,0.0,18448,0,0,0,0,18448
0.0,0.0,0.0,0.0,0.0,0.0,1015.6102294921875,21.81999969482422,10.48718547821045,0.4318532943725586,0,0,0.0,0.0,0.0,0,False,0.0,0.0,0.0,0.0,0.0,18499,0,0,0,0,18499
0.0,0.0,0.0,0.0,0.0,0.0,1015.5982666015625,21.809999465942383,10.587591171264648,0.7471054196357727,0,0,0.0,0.0,0.0,0,False,0.0,0.0,0.0,0.0,0.0,18549,0,0,0,0,18549
0.0,0.0,0.0,0.0,0.0,0.0,1015.5982666015625,21.809999465942383,10.587591171264648,0.5976843237876892,0,0,0.0,0.0,0.0,0,False,0.0,0.0,0.0,0.0,0.0,18599,0,0,0,0,18599
0.0,0.0,0.0,0.0,0.0,0.0,1015.6787719726562,21.860000610351562,9.919095993041992,-2.195833206176758,0,0,0.0,0.0,0.0,0,False,0.0,0.0,0.0,0.0,0.0,18649,0,0,0,0,18649
0.0,0.0,0.0,0.0,0.0,0.0,1015.6787719726562,21.860000610351562,9.919095993041992,-1.7566665410995483,0,0,0.0,0.0,0.0,0,False,0.0,0.0,0.0,0.0,0.0,18699,0,0,0,0,18699
0.0,0.0,0.0,0.0,0.0,0.0,1015.6651611328125,21.850000381469727,10.032713890075684,-0.9508616924285889,0,0,0.0,0.0,0.0,0,False,0.0,0.0,0.0,0.0,0.0,18749,0,0,0,0,18749
0.0,0.0,0.0,0.0,0.0,0.0,1015.6651611328125,21.850000381469727,10.032713890075684,-0.760689377784729,0,0,0.0,0.0,0.0,0,False,0.0,0.0,0.0,0.0,0.0,18799,0,0,0,0,18799
0.0,0.0,0.0,0.0,0.0,0.0,1015.6529541015625,21.850000381469727,10.1331205368042,-0.2069249153137207,0,0,0.0,0.0,0.0,0,False,0.0,0.0,0.0,0.0,0.0,18849,0,0,0,0,18849
0.0,0.0,0.0,0.0,0.0,0.0,1015.6529541015625,21.850000381469727,10.1331205368042,-0.1655399352312088,0,0,0.0,0.0,0.0,0,False,0.0,0.0,0.0,0.0,0.0,18899,0,0,0,0,18899
0.0,0.0,0.0,0.0,0.0,0.0,1015.6447143554688,21.84000015258789,10.20181941986084,0.14236357808113098,0,0,0.0,0.0,0.0,0,False,0.0,0.0,0.0,0.0,0.0,18949,0,0,0,0,18949
0.0,0.0,0.0,0.0,0.0,0.0,1015.6447143554688,21.84000015258789,10.20181941986084,0.1138908639550209,0,0,0.0,0.0,0.0,0,False,0.0,0.0,0.0,0.0,0.0,18999,0,0,0,0,18999
0.0,0.0,0.0,0.0,0.0,0.0,1015.7237548828125,21.889999389648438,9.54653549194336,-2.5300230979919434,0,0,0.0,0.0,0.0,0,False,0.0,0.0,0.0,0.0,0.0,19049,0,0,0,0,19049
0.0,0.0,0.0,0.0,0.0,0.0,1015.7237548828125,21.889999389648438,9.54653549194336,-2.0240185260772705,0,0,0.0,0.0,0.0,0,False,0.0,0.0,0.0,0.0,0.0,19099,0,0,0,0,19099
0.0,0.0,0.0,0.0,0.0,0.0,1015.7115478515625,21.8799991607666,9.646942138671875,-1.2175883054733276,0,0,0.0,0.0,0.0,0,False,0.0,0.0,0.0,0.0,0.0,19149,0,0,0,0,19149
0.0,0.0,0.0,0.0,0.0,0.0,1015.7115478515625,21.8799991607666,9.646942138671875,-0.97407066822052,0,0,0.0,0.0,0.0,0,False,0.0,0.0,0.0,0.0,0.0,19200,0,0,0,0,19200
0.0,0.0,0.0,0.0,0.0,0.0,1015.7052612304688,21.8799991607666,9.699787139892578,-0.5678765177726746,0,0,0.0,0.0,0.0,0,False,0.0,0.0,0.0,0.0,0.0,19250,0,0,0,0,19250
0.0,0.0,0.0,0.0,0.0,0.0,1015.7052612304688,21.8799991607666,9.699787139892578,-0.45430120825767517,0,0,0.0,0.0,0.0,0,False,0.0,0.0,0.0,0.0,0.0,19300,0,0,0,0,19300
0.0,0.0,0.0,0.0,0.0,0.0,1015.694580078125,21.8700008392334,9.786982536315918,-0.014659374952316284,0,0,0.0,0.0,0.0,0,False,0.0,0.0,0.0,0.0,0.0,19350,0,0,0,0,19350
0.0,0.0,0.0,0.0,0.0,0.0,1015.694580078125,21.8700008392334,9.786982536315918,-0.011727499775588512,0,0,0.0,0.0,0.0,0,False,0.0,0.0,0.0,0.0,0.0,19400,0,0,0,0,19400
0.0,0.0,0.0,0.0,0.0,0.0,1015.7697143554688,21.920000076293945,9.163406372070312,-2.5036866664886475,0,0,0.0,0.0,0.0,0,False,0.0,0.0,0.0,0.0,0.0,19450,0,0,0,0,19450
0.0,0.0,0.0,0.0,0.0,0.0,1015.7697143554688,21.920000076293945,9.163406372070312,-2.0029494762420654,0,0,0.0,0.0,0.0,0,False,0.0,0.0,0.0,0.0,0.0,19500,0,0,0,0,19500
0.0,0.0,0.0,0.0,0.0,0.0,1015.7594604492188,21.90999984741211,9.24795913696289,-1.2641485929489136,0,0,0.0,0.0,0.0,0,False,0.0,0.0,0.0,0.0,0.0,19550,0,0,0,0,19550
0.0,0.0,0.0,0.0,0.0,0.0,1015.7594604492188,21.90999984741211,9.24795913696289,-1.0113189220428467,0,0,0.0,0.0,0.0,0,False,0.0,0.0,0.0,0.0,0.0,19600,0,0,0,0,19600
0.0,0.0,0.0,0.0,0.0,0.0,1015.7488403320312,21.899999618530273,9.337796211242676,-0.4497068524360657,0,0,0.0,0.0,0.0,0,False,0.0,0.0,0.0,0.0,0.0,19650,0,0,0,0,19650
0.0,0.0,0.0,0.0,0.0,0.0,1015.7488403320312,21.899999618530273,9.337796211242676,-0.35976549983024597,0,0,0.0,0.0,0.0,0,False,0.0,0.0,0.0,0.0,0.0,19700,0,0,0,0,19700
0.0,0.0,0.0,0.0,0.0,0.0,1015.7349853515625,21.899999618530273,9.451414108276367,0.1666591763496399,0,0,0.0,0.0,0.0,0,False,0.0,0.0,0.0,0.0,0.0,19750,0,0,0,0,19750
0.0,0.0,0.0,0.0,0.0,0.0,1015.7349853515625,21.899999618530273,9.451414108276367,0.13332735002040863,0,0,0.0,0.0,0.0,0,False,0.0,0.0,0.0,0.0,0.0,19800,0,0,0,0,19800
0.0,0.0,0.0,0.0,0.0,0.0,1015.8060913085938,21.940000534057617,8.862186431884766,-2.250248908996582,0,0,0.0,0.0,0.0,0,False,0.0,0.0,0.0,0.0,0.0,19850,0,0,0,0,19850
0.0,0.0,0.0,0.0,0.0,0.0,1015.8060913085938,21.940000534057617,8.862186431884766,-1.8001991510391235,0,0,0.0,0.0,0.0,0,False,0.0,0.0,0.0,0.0,0.0,19900,0,0,0,0,19900
0.0,0.0,0.0,0.0,0.0,0.0,1015.78564453125,21.93000030517578,9.031291961669922,-0.7637372016906738,0,0,0.0,0.0,0.0,0,False,0.0,0.0,0.0,0.0,0.0,19950,0,0,0,0,19950
0.0,0.0,0.0,0.0,0.0,0.0,1015.78564453125,21.93000030517578,9.031291961669922,-0.6109897494316101,0,0,0.0,0.0,0.0,0,False,0.0,0.0,0.0,0.0,0.0,20000,0,0,0,0,20000
0.0,0.0,0.0,0.0,0.0,0.0,1015.7697143554688,21.920000076293945,9.163406372070312,0.03966584801673889,0,0,0.0,0.0,0.0,0,False,0.0,0.0,0.0,0.0,0.0,20050,0,0,0,0,20050
0.0,0.0,0.0,0.0,0.0,0.0,1015.7697143554688,21.920000076293945,9.163406372070312,0.03173267841339111,0,0,0.0,0.0,0.0,0,False,0.0,0.0,0.0,0.0,0.0,20100,0,0,0,0,20100
0.0,0.0,0.0,0.0,0.0,0.0,1015.7479858398438,21.90999984741211,9.343080520629883,0.7440827488899231,0,0,0.0,0.0,0.0,0,False,0.0,0.0,0.0,0.0,0.0,20150,0,0,0,0,20150
0.0,0.0,0.0,0.0,0.0,0.0,1015.7479858398438,21.90999984741211,9.343080520629883,0.5952662229537964,0,0,0.0,0.0,0.0,0,False,0.0,0.0,0.0,0.0,0.0,20200,0,0,0,0,20200
0.0,0.0,0.0,0.0,0.0,0.0,1015.8203125,21.950000762939453,8.743284225463867,-1.9229722023010254,0,0,0.0,0.0,0.0,0,False,0.0,0.0,0.0,0.0,0.0,20250,0,0,0,0,20250
0.0,0.0,0.0,0.0,0.0,0.0,1015.8203125,21.950000762939453,8.743284225463867,-1.5383777618408203,0,0,0.0,0.0,0.0,0,False,0.0,0.0,0.0,0.0,0.0,20300,0,0,0,0,20300
0.0,0.0,0.0,0.0,0.0,0.0,1015.7899169921875,21.93000030517578,8.996942520141602,-0.21606910228729248,0,0,0.0,0.0,0.0,0,False,0.0,0.0,0.0,0.0,0.0,20350,0,0,0,0,20350
0.0,0.0,0.0,0.0,0.0,0.0,1016.877197265625,22.65999984741211,0.039634108543395996,0.0,0,0,0.0,0.0,0.0,0,False,0.0,0.0,0.0,0.0,0.0,3347,0,0,0,0,3347
0.0,0.0,0.0,0.0,0.0,0.0,1016.877197265625,22.65999984741211,0.039634108543395996,0.0,0,0,0.0,0.0,0.0,0,False,0.0,0.0,0.0,0.0,0.0,3397,0,0,0,0,3397
0.0,0.0,0.0,0.0,0.0,0.0,1016.877197265625,22.65999984741211,0.039634108543395996,0.0,0,0,0.0,0.0,0.0,0,False,0.0,0.0,0.0,0.0,0.0,3447,0,0,0,0,3447
